mX,mY,mZ,gX,gY,gZ,aX,aY,aZ,label
50.88,-17.21,19.32,29.97,-14.53,53.34,1.05,0.39,-0.22,0
41.74,4.82,-46.86,-0.85,-0.06,0.37,-0.04,-0.03,1.0,3
62.07,-18.8,9.78,59.94,-8.48,-23.5,0.6,0.79,-0.4,2
49.58,-32.57,6.57,38.94,-53.59,78.67,0.86,-0.22,-0.26,0
50.51,-14.98,22.22,-45.04,35.03,-45.04,1.0,0.11,-0.2,0
27.69,-37.45,-2.65,-14.65,-4.76,-84.96,-0.42,0.61,0.2,2
49.93,-12.19,27.25,5.43,104.74,29.24,0.26,0.3,-1.16,2
50.49,-32.54,10.38,-26.92,33.63,89.17,-0.93,0.32,-0.15,1
48.17,-13.6,22.74,71.78,-0.06,-1.16,1.06,0.02,-0.43,0
42.13,5.07,-46.3,-0.85,0.0,0.55,-0.04,-0.03,1.0,3
42.2,4.82,-47.84,-0.79,0.0,0.37,-0.04,-0.03,1.0,3
3.12,-16.58,21.04,-0.31,-77.33,-10.44,-0.81,0.25,-0.12,2
52.76,-27.06,13.83,-82.46,20.63,-76.84,1.03,0.09,-0.58,0
42.75,4.96,-47.12,-0.61,0.0,0.55,-0.04,-0.03,1.0,3
41.97,4.36,-47.47,-0.79,0.0,0.49,-0.04,-0.03,1.0,3
39.42,-36.29,-3.78,16.24,-5.68,93.51,-0.21,0.76,0.23,2
50.2,-13.12,21.24,-1.95,24.6,-13.98,0.77,0.44,-0.14,0
42.76,4.7,-48.47,-0.85,-0.06,0.31,-0.04,-0.03,1.0,3
19.85,-37.21,-5.19,-18.55,-8.3,-78.06,-0.56,0.39,0.28,2
40.93,-15.8,32.91,-16.91,-114.93,-36.25,0.01,0.44,-1.11,2
50.28,-30.8,11.47,69.34,4.15,-56.64,-0.5,0.6,0.29,1
49.93,-18.91,21.45,52.73,-14.1,60.42,0.99,0.09,-0.45,0
8.34,-28.91,15.93,-15.26,-30.21,-5.62,-0.76,0.41,0.08,2
50.81,-18.96,21.14,32.41,-44.25,59.51,0.87,-0.24,-0.42,0
50.18,-30.11,11.44,-8.97,-4.33,17.58,0.68,-0.04,-0.3,0
51.09,-31.09,7.42,-21.06,-23.01,-15.44,-0.74,0.41,0.08,1
42.02,4.37,-47.84,-0.61,0.06,0.37,-0.04,-0.03,1.0,3
54.24,-27.53,10.83,-223.21,111.76,-372.8,0.34,0.99,0.67,1
28.96,-38.18,-2.55,-13.06,20.57,-140.2,3.72,4.0,0.42,1
43.08,-20.51,31.52,-35.34,-73.43,-26.98,-0.07,0.56,-0.94,2
19.12,-36.6,-5.16,23.86,4.58,69.64,-0.62,0.32,0.28,2
14.87,-28.87,20.85,-18.49,-70.68,-4.82,-0.81,0.57,-0.26,2
42.07,4.65,-47.12,-0.61,0.0,0.55,-0.04,-0.03,1.0,3
43.58,-35.68,11.32,5.25,-3.05,207.64,2.0,0.68,-0.61,1
50.9,-13.43,21.75,-10.5,20.81,-44.37,0.82,0.27,-0.18,0
47.3,-33.53,9.78,98.51,-13.55,150.27,2.13,0.81,-0.34,1
53.2,-24.07,14.26,44.68,-57.19,84.11,0.9,-0.22,-0.39,0
39.71,-37.02,6.75,40.65,9.52,178.22,0.94,0.58,-0.42,1
48.94,-13.99,22.91,-29.72,42.11,-60.67,1.07,0.2,-0.23,0
42.31,4.61,-46.81,-0.67,0.0,0.31,-0.04,-0.03,1.0,3
24.73,-37.94,0.65,68.54,13.0,63.05,0.84,-0.95,-0.47,1
42.31,5.19,-47.3,-0.67,-0.06,0.49,-0.04,-0.03,1.0,3
34.89,-37.32,0.93,-18.31,-9.28,-49.01,-0.25,0.75,0.21,2
28.77,-17.79,32.79,0.85,61.04,21.0,-0.48,0.33,-0.82,2
51.17,-32.76,4.3,-21.06,-3.85,-75.93,0.29,0.98,0.1,2
51.9,-29.77,10.57,-9.28,-17.88,30.82,-0.28,0.7,0.42,1
54.0,-26.37,13.09,-78.55,-19.23,37.72,-0.43,1.02,0.22,1
28.89,-37.9,-0.77,-0.24,47.18,-156.56,3.61,2.49,-0.2,1
59.42,-11.34,16.99,14.59,-46.75,-39.43,0.58,0.48,-1.1,2
41.66,4.7,-46.23,-0.67,0.12,0.61,-0.04,-0.03,1.0,3
52.05,-21.28,15.81,-57.01,26.25,-17.33,0.99,0.16,-0.16,0
53.17,-20.58,14.47,1.83,13.98,-35.1,0.76,-0.18,-0.11,0
42.53,5.11,-47.3,-0.85,-0.06,0.37,-0.04,-0.03,1.0,3
48.97,-7.71,23.89,-32.59,17.94,-34.73,0.93,0.31,-0.19,0
41.83,4.58,-47.58,-0.61,0.0,0.49,-0.04,-0.03,1.0,3
33.2,-37.77,-0.29,-37.9,42.72,-104.74,1.28,-0.5,-0.37,1
32.31,-37.4,0.07,-14.28,43.64,-84.11,1.81,-0.8,-0.43,1
49.46,-7.48,24.18,-18.68,4.88,3.72,0.73,0.48,-0.23,0
41.98,4.85,-46.84,-0.73,0.06,0.37,-0.04,-0.03,1.0,3
36.41,-37.33,-2.26,-23.5,12.27,-88.5,3.75,4.0,0.0,1
53.54,-26.79,13.4,55.42,-44.25,51.03,0.83,-0.07,-0.46,0
62.76,-21.12,0.99,-12.27,-6.29,66.35,0.63,1.04,0.13,2
49.35,-9.57,21.97,-31.49,7.02,-2.01,0.87,0.36,-0.29,0
50.94,-22.42,18.19,-101.38,49.13,-82.09,1.15,0.08,-0.56,0
56.31,-29.77,-0.33,4.39,-10.38,113.77,0.44,0.95,0.09,2
37.62,-36.8,-2.53,272.16,-50.72,40.83,0.28,-0.54,-0.45,1
33.35,-35.22,1.04,167.24,36.19,27.65,0.36,-0.79,-0.51,1
42.15,5.62,-46.5,-0.67,0.0,0.43,-0.04,-0.03,1.0,3
39.92,-37.43,3.09,-83.86,32.29,-163.33,1.25,1.4,0.54,1
48.6,-32.13,10.07,-60.67,-29.79,168.76,2.67,1.12,-0.2,1
24.28,-37.45,-5.94,14.1,10.07,73.85,-0.45,0.44,0.3,2
36.01,-37.52,1.56,-74.22,-40.95,156.19,0.02,-1.05,-0.3,1
38.35,-37.6,-0.18,68.3,-77.64,186.77,0.04,-1.07,-0.56,1
60.0,-24.38,3.17,-46.88,-3.48,-71.23,0.59,0.89,0.15,2
23.01,-37.95,-4.25,5.55,-3.97,-17.4,-0.54,0.53,0.33,2
16.7,-22.8,27.76,13.67,71.53,20.87,-0.71,0.42,-0.47,2
50.1,-22.03,17.9,37.66,1.16,52.61,0.99,0.21,-0.43,0
48.11,-36.25,9.13,-189.33,19.53,-123.29,-0.51,0.57,0.27,1
37.94,-38.37,2.89,-2.2,62.32,-146.91,2.48,2.98,0.07,1
41.91,4.36,-46.8,-0.61,0.06,0.37,-0.04,-0.03,1.0,3
42.27,4.58,-46.95,-0.61,0.0,0.43,-0.04,-0.03,1.0,3
52.7,-30.26,10.79,56.27,-8.54,28.87,0.81,1.87,0.19,1
42.14,4.81,-47.44,-0.79,0.06,0.49,-0.04,-0.03,1.0,3
28.59,-36.01,2.76,53.1,-11.05,253.91,0.46,-1.37,-0.4,1
42.15,5.43,-47.8,-0.79,0.06,0.49,-0.04,-0.03,1.0,3
49.77,-20.81,20.2,21.12,-14.1,44.43,0.94,0.07,-0.4,0
51.15,-21.77,16.08,10.62,-20.81,40.1,0.85,0.11,-0.32,0
52.0,-26.54,12.93,-85.33,60.42,-66.04,1.03,0.17,-0.42,0
48.56,-11.34,23.84,21.18,-34.06,55.05,1.21,0.42,-0.4,0
49.34,-12.74,21.9,15.38,-6.65,38.88,1.03,0.38,-0.36,0
42.3,4.91,-48.08,-0.85,0.0,0.37,-0.04,-0.03,1.0,3
52.37,-27.66,13.21,-48.4,18.55,24.72,-0.58,0.66,0.24,1
48.94,-18.33,21.22,92.35,-14.71,19.41,1.14,0.02,-0.38,0
50.67,-27.97,14.93,31.07,-44.86,63.72,0.68,0.0,-0.31,0
42.35,5.43,-46.81,-0.73,-0.12,0.43,-0.04,-0.03,1.0,3
23.85,-15.06,33.25,11.9,94.06,11.11,-0.51,0.29,-0.78,2
38.94,-20.85,30.69,7.87,64.88,21.48,-0.27,0.46,-0.82,2
50.52,-29.99,12.23,44.86,-51.15,72.81,0.71,-0.16,-0.48,0
50.65,-33.56,5.47,27.83,14.65,127.2,0.43,0.98,0.03,2
51.12,-18.09,19.34,-62.62,-4.64,-36.01,1.16,-0.27,-0.45,0
50.33,-30.58,12.56,-23.74,-1.34,-19.17,0.78,-0.17,-0.51,0
48.8,-33.98,7.53,-217.59,18.8,-242.61,0.26,0.96,0.26,1
32.51,-40.44,-2.5,4.21,9.4,57.86,-0.34,0.88,0.27,2
50.34,-21.34,19.71,-44.86,-0.79,-8.67,0.94,-0.11,-0.51,0
20.97,-18.71,31.93,13.12,66.96,34.79,-0.71,0.38,-0.67,2
59.53,-11.46,16.3,-8.24,36.68,14.16,0.33,0.35,-1.14,2
3.06,-14.99,23.57,7.93,-23.19,-1.59,-0.78,0.2,0.06,2
3.2,-22.25,17.44,-16.42,-45.35,-1.71,-0.84,0.25,0.08,2
42.1,5.41,-45.25,-0.73,0.06,0.37,-0.04,-0.03,1.0,3
41.54,4.57,-47.05,-0.67,0.06,0.61,-0.04,-0.03,1.0,3
52.81,-29.03,13.33,-48.16,-9.95,-6.96,0.97,-0.23,-0.68,0
45.62,-32.46,12.3,28.69,-33.33,182.13,1.48,0.72,-0.84,1
32.62,-24.15,30.52,-1.16,114.81,55.11,-0.23,0.5,-0.69,2
42.4,5.08,-46.62,-0.55,-0.06,0.49,-0.04,-0.03,1.0,3
51.01,-11.18,20.96,-27.22,6.96,-43.15,0.91,0.24,-0.12,0
32.75,-38.53,-0.81,13.12,49.32,-130.49,4.0,4.0,-0.39,1
62.9,-19.76,2.51,-6.04,-5.62,-14.71,0.7,1.08,0.14,2
33.63,-36.66,0.93,81.6,31.37,-1.28,0.46,-0.79,-0.6,1
38.33,-37.43,-0.61,-16.36,-5.31,-107.73,-0.09,0.78,0.18,2
51.55,-30.0,11.12,-38.94,54.14,-6.47,-0.52,0.78,0.25,1
31.46,-36.83,4.46,59.02,49.56,-52.86,0.62,-0.9,-0.25,1
31.14,-36.56,3.81,89.6,52.25,65.92,0.28,-0.62,-0.68,1
38.42,-36.88,-3.47,12.45,11.84,76.6,-0.18,0.76,0.21,2
44.7,-13.13,30.77,-3.78,107.67,23.86,0.11,0.27,-1.11,2
51.6,-27.36,15.11,-5.8,12.39,-3.85,0.86,-0.19,-0.56,0
3.22,-15.23,22.88,15.69,-30.09,9.64,-0.67,0.2,0.18,2
55.68,-15.33,22.72,12.7,65.31,11.41,0.39,0.36,-0.95,2
50.84,-30.21,11.1,25.02,-16.48,36.68,1.52,2.93,0.07,1
53.43,-21.57,14.5,-24.9,-20.51,13.79,0.9,0.07,-0.2,0
51.71,-31.37,8.37,-9.28,57.62,-79.96,-0.4,0.46,0.25,1
42.27,4.42,-47.31,-0.73,-0.12,0.49,-0.04,-0.03,1.0,3
51.88,-18.24,19.08,-68.24,18.62,-37.05,1.02,0.23,-0.13,0
51.05,-32.62,-2.7,1.28,7.2,-67.5,0.23,0.89,0.18,2
53.58,-19.18,16.53,-8.0,13.24,8.91,0.97,0.24,-0.17,0
47.52,-32.2,12.01,-3.66,-15.32,179.63,3.05,1.25,0.2,1
49.07,-16.17,22.47,-39.31,21.55,-50.66,1.03,0.21,-0.28,0
41.46,-37.19,4.9,257.2,-4.94,93.63,0.11,-0.5,-0.46,1
42.11,4.86,-47.36,-0.73,-0.06,0.24,-0.04,-0.03,1.0,3
48.67,-19.47,20.58,64.58,-9.89,46.08,0.91,-0.09,-0.44,0
45.41,-18.82,29.61,-21.97,-88.13,-46.33,0.01,0.44,-1.02,2
48.43,-7.35,23.9,12.39,-11.29,9.7,1.06,0.09,-0.69,0
42.25,5.05,-46.25,-0.79,0.06,0.43,-0.04,-0.03,1.0,3
41.99,4.99,-46.97,-0.55,0.06,0.43,-0.04,-0.03,1.0,3
33.02,-22.79,30.97,-13.18,-66.47,-23.99,-0.37,0.51,-0.73,2
47.79,-8.19,25.89,17.15,-15.99,94.42,0.94,0.06,-0.59,0
50.59,-4.2,21.29,10.5,13.79,6.9,0.76,0.38,-0.34,0
40.63,-17.13,31.41,-5.13,-103.15,-28.02,-0.23,0.41,-1.17,2
43.41,-17.02,31.86,-15.99,-103.94,-28.02,-0.07,0.43,-1.1,2
49.39,-14.69,22.05,-0.49,15.14,-53.22,1.0,0.4,-0.06,0
42.52,5.25,-46.62,-0.55,0.0,0.43,-0.04,-0.03,1.0,3
17.74,-30.33,19.63,17.64,80.44,74.16,-0.5,0.5,-0.16,2
41.99,4.81,-47.03,-0.73,-0.18,0.37,-0.04,-0.03,1.0,3
51.55,-29.96,10.03,-14.59,2.01,-25.33,0.93,-0.02,-0.43,0
53.05,-27.77,12.68,6.65,-15.14,92.77,3.95,0.81,-0.87,1
41.6,4.66,-47.58,-0.61,-0.06,0.43,-0.04,-0.03,1.0,3
49.12,-22.6,20.32,83.25,-10.8,39.06,1.03,0.02,-0.49,0
50.35,-13.76,21.42,19.96,3.6,29.79,1.11,0.09,-0.38,0
52.43,-17.49,25.57,1.1,66.28,16.11,0.17,0.39,-0.95,2
42.69,4.72,-46.57,-0.79,0.06,0.55,-0.04,-0.03,1.0,3
48.13,-14.69,23.27,51.64,0.79,34.48,1.04,0.07,-0.54,0
55.07,-27.01,11.16,-132.08,75.68,22.22,-0.57,0.94,0.41,1
42.09,5.29,-47.9,-0.79,0.06,0.43,-0.04,-0.03,1.0,3
33.72,-35.8,-5.48,-84.23,-65.12,146.55,0.42,-0.93,-0.41,1
42.25,4.54,-47.78,-0.67,-0.12,0.31,-0.04,-0.03,1.0,3
51.0,-19.59,20.91,32.17,-25.45,44.31,0.9,-0.22,-0.36,0
42.0,5.21,-46.59,-0.73,0.06,0.43,-0.04,-0.03,1.0,3
34.83,-37.26,-1.43,-9.16,2.38,16.3,1.32,-0.99,-0.22,1
50.61,-23.57,18.69,64.45,-37.05,52.19,1.1,0.01,-0.62,0
51.2,-14.82,20.25,-55.97,3.78,-21.06,0.96,0.25,-0.17,0
51.51,-28.72,12.04,-0.85,23.62,-3.05,-0.33,0.68,0.22,1
52.67,-18.57,24.98,-20.32,-76.6,-23.38,0.12,0.51,-1.1,2
42.09,4.72,-46.88,-0.79,-0.12,0.37,-0.04,-0.03,1.0,3
46.73,-33.87,7.42,35.1,-10.01,255.25,1.55,0.86,0.59,1
49.8,-30.9,9.36,1.83,-20.26,221.5,1.8,0.05,-0.67,1
52.56,-29.33,12.72,47.67,2.08,-23.62,-0.62,0.35,0.09,1
50.27,-31.76,10.41,14.16,10.56,60.24,1.22,2.57,0.26,1
39.76,-16.99,33.35,-0.67,-58.59,-29.3,-0.22,0.4,-1.03,2
42.02,5.14,-46.18,-0.79,-0.06,0.43,-0.04,-0.03,1.0,3
3.72,-15.22,23.96,32.23,53.41,-2.01,-0.73,0.18,0.06,2
42.14,4.9,-48.29,-0.67,-0.06,0.43,-0.04,-0.03,1.0,3
52.26,-24.48,14.83,-67.38,32.23,-69.03,0.88,0.0,-0.41,0
32.08,-36.6,2.65,0.24,4.21,149.66,0.32,-1.26,-0.52,1
50.84,-31.45,10.83,2.81,-4.15,-12.94,0.87,-0.09,-0.46,0
42.26,4.66,-46.7,-0.67,0.12,0.49,-0.04,-0.03,1.0,3
42.05,4.76,-46.06,-0.67,0.06,0.61,-0.04,-0.03,1.0,3
26.67,-37.39,-1.0,-106.75,22.03,-143.55,2.91,0.45,-0.88,1
51.94,-19.3,17.75,12.88,10.62,-49.5,1.15,0.11,-0.16,0
50.65,-23.03,16.43,-10.5,-7.57,-11.54,0.96,0.13,-0.33,0
50.37,-20.34,19.3,-57.07,12.94,-10.68,1.06,-0.09,-0.63,0
42.55,4.83,-47.38,-0.92,0.0,0.37,-0.04,-0.03,1.0,3
47.67,-34.51,11.01,0.37,23.32,73.61,1.75,3.46,0.4,1
60.4,-24.06,0.96,2.56,-9.64,90.88,0.64,0.91,0.1,2
54.21,-25.42,14.12,-26.06,1.16,45.47,-0.23,0.23,0.21,1
51.89,-20.1,17.26,71.9,-30.27,63.17,1.22,-0.03,-0.36,0
46.92,-15.17,29.75,-13.98,-70.5,-6.84,-0.05,0.36,-1.12,2
49.52,-34.27,5.24,-136.54,35.03,-215.7,-0.15,1.28,0.33,1
49.8,-11.27,23.01,-3.85,2.01,-54.81,0.95,0.24,-0.12,0
59.5,-17.41,16.03,0.43,-31.01,-4.21,0.45,0.4,-0.91,2
52.34,-27.31,13.73,46.51,-17.58,73.0,0.81,1.66,0.21,1
41.99,5.02,-47.3,-0.61,0.0,0.49,-0.04,-0.03,1.0,3
49.63,-14.21,22.95,39.0,-22.64,48.71,1.03,-0.19,-0.56,0
42.65,5.37,-46.62,-0.61,-0.06,0.49,-0.04,-0.03,1.0,3
51.35,-29.5,10.64,-8.79,10.07,40.04,0.56,1.03,0.31,1
49.07,-28.08,15.21,-0.73,-10.31,-20.26,0.79,-0.04,-0.38,0
42.68,5.14,-47.77,-0.61,-0.06,0.49,-0.04,-0.03,1.0,3
51.28,-30.03,10.74,-32.78,16.17,-11.47,-0.6,0.98,0.19,1
42.49,4.37,-47.12,-0.73,0.06,0.43,-0.04,-0.03,1.0,3
36.11,-35.6,0.33,-16.11,20.57,-89.54,3.22,3.41,-0.45,1
50.15,-30.53,12.15,-12.94,30.09,22.34,-0.86,0.42,-0.01,1
54.64,-13.77,25.13,-4.88,77.51,26.18,0.27,0.44,-0.99,2
41.78,4.65,-47.63,-0.61,-0.06,0.43,-0.04,-0.03,1.0,3
30.21,-36.85,4.53,94.73,101.07,42.66,0.52,-0.3,-0.52,1
42.54,5.27,-47.39,-0.79,0.0,0.43,-0.04,-0.03,1.0,3
49.78,-24.44,17.6,-71.35,18.07,-50.05,0.9,0.19,-0.43,0
28.21,-16.64,34.86,-4.52,-127.2,-18.31,-0.37,0.41,-0.96,2
43.82,-36.91,3.66,-190.67,16.11,-374.63,0.64,1.46,0.34,1
47.52,-8.72,25.68,17.33,-14.4,41.38,1.16,0.26,-0.54,0
41.94,4.74,-46.79,-0.49,0.0,0.24,-0.04,-0.03,1.0,3
39.12,-37.78,4.04,-139.22,49.93,-205.14,0.87,1.35,0.25,1
41.8,5.0,-47.19,-0.49,-0.12,0.43,-0.04,-0.03,1.0,3
51.32,-30.21,13.02,1.77,-8.06,20.63,0.76,-0.01,-0.4,0
48.89,-7.14,22.72,30.76,24.6,-3.3,1.04,0.33,-0.4,0
50.46,-26.79,12.92,21.79,0.12,15.38,0.76,0.03,-0.26,0
42.76,-36.52,8.85,56.46,21.79,200.01,2.55,1.04,-0.04,1
52.42,-28.82,14.03,-62.44,8.61,-28.2,0.9,-0.04,-0.5,0
11.28,-17.19,28.55,-9.83,-99.24,-8.0,-0.54,0.31,-0.14,2
51.94,-28.04,12.6,49.44,-47.36,115.6,3.33,0.87,-0.41,1
50.77,-28.34,14.21,3.85,-13.98,-9.58,0.76,-0.26,-0.53,0
49.62,-20.32,20.95,18.37,-3.78,10.56,0.74,-0.09,-0.36,0
48.91,-9.77,23.34,-18.98,23.74,-40.83,0.87,0.19,-0.28,0
44.56,-13.15,32.62,-0.24,90.33,14.1,-0.05,0.27,-1.09,2
49.41,-32.92,8.22,153.99,-22.16,63.48,1.34,0.54,-0.21,1
50.68,-16.36,21.0,-19.35,45.41,-83.56,0.94,0.17,-0.19,0
42.61,5.11,-47.71,-0.79,0.0,0.55,-0.04,-0.03,1.0,3
53.25,-25.65,15.87,8.18,-5.98,-3.85,0.76,-0.21,-0.48,0
48.54,-31.96,10.94,-89.66,28.14,-76.11,-0.47,0.34,0.38,1
51.04,-24.51,15.84,3.66,-20.45,46.94,0.72,-0.03,-0.41,0
54.1,-24.49,16.08,27.4,-61.4,78.86,0.78,-0.2,-0.44,0
42.21,4.38,-46.95,-0.67,-0.06,0.43,-0.04,-0.03,1.0,3
50.34,-22.19,18.26,4.46,-28.81,38.09,0.84,-0.06,-0.41,0
28.77,-35.88,-0.39,27.83,2.26,-39.49,0.65,-0.4,-0.42,1
52.54,-27.34,13.48,20.2,-51.33,56.46,0.65,-0.33,-0.49,0
42.57,5.66,-46.35,-0.79,-0.06,0.37,-0.04,-0.03,1.0,3
42.05,4.65,-47.84,-0.73,0.0,0.55,-0.04,-0.03,1.0,3
23.46,-22.36,29.58,10.5,69.82,18.13,-0.66,0.46,-0.63,2
51.05,-25.44,14.93,-50.6,9.4,-31.56,1.04,-0.16,-0.48,0
7.09,-15.25,26.0,-5.13,-81.05,-10.68,-0.72,0.23,-0.24,2
50.63,-29.8,10.93,-54.87,35.1,-65.19,1.26,-0.06,-0.48,0
37.1,-37.19,-0.06,-8.3,44.13,-118.9,4.0,4.0,-0.88,1
46.84,-35.88,11.38,7.93,14.47,76.23,0.68,2.6,0.19,1
50.73,-25.09,15.99,49.07,-37.48,80.69,0.83,-0.19,-0.43,0
49.56,-17.86,19.91,60.97,-16.6,34.3,0.96,-0.07,-0.35,0
50.61,-14.42,20.61,-8.36,12.57,-16.17,0.83,0.27,-0.14,0
42.54,4.97,-46.53,-0.85,0.0,0.49,-0.04,-0.03,1.0,3
0.74,-13.89,19.76,13.12,-39.18,-6.23,-0.75,0.16,0.15,2
49.8,-18.76,19.8,43.21,-8.0,34.42,0.95,0.48,-0.16,0
51.82,-31.63,5.59,-12.57,32.65,-108.34,-0.35,0.95,0.23,1
50.52,-17.8,19.89,-5.37,26.98,-76.9,1.26,-0.05,-0.41,0
42.63,5.08,-47.5,-0.79,0.0,0.43,-0.04,-0.03,1.0,3
49.76,-27.42,15.34,-52.67,-1.4,-31.92,0.98,-0.08,-0.53,0
50.27,-15.69,22.39,-52.98,14.77,-65.19,1.08,0.14,-0.17,0
51.71,-29.22,11.82,71.35,92.9,-35.77,-0.25,0.76,0.47,1
50.57,-31.18,9.24,-6.35,-4.7,10.62,0.66,0.04,-0.33,0
49.11,-33.0,7.5,-27.22,29.66,235.9,1.83,0.98,0.38,1
59.28,-10.46,18.02,-15.5,19.41,2.99,0.38,0.5,-1.17,2
41.6,4.98,-47.3,-0.79,-0.06,0.31,-0.04,-0.03,1.0,3
50.2,-12.51,22.45,-0.85,-32.9,0.73,1.41,-0.04,-0.37,0
51.33,-19.48,20.28,-124.08,55.05,-16.66,0.74,-0.01,-0.48,0
50.12,-24.1,20.4,-320.19,-14.71,37.78,-0.34,1.02,-0.04,1
49.95,-24.57,17.8,52.49,-37.05,52.06,0.84,-0.13,-0.48,0
50.18,-12.67,21.55,-9.77,27.16,-39.12,0.88,0.41,-0.16,0
45.06,-35.99,4.81,-217.16,8.97,-225.46,1.02,1.8,0.09,1
29.61,-35.53,0.63,126.16,-84.96,211.91,0.21,-1.28,-0.26,1
51.15,-31.35,8.23,-37.05,-6.04,-30.03,0.91,-0.12,-0.48,0
34.03,-37.87,-4.06,-36.5,-1.83,-18.49,4.0,1.26,-0.86,1
50.72,-33.33,2.87,18.55,10.86,124.94,0.42,0.97,0.1,2
42.59,4.72,-47.18,-0.67,0.0,0.55,-0.04,-0.03,1.0,3
50.18,-17.49,20.25,-23.5,3.42,-27.71,1.12,0.15,-0.23,0
49.48,-28.77,14.54,42.48,-109.99,203.67,3.19,1.46,0.28,1
49.27,-10.14,23.47,26.67,-10.62,2.08,1.1,0.27,-0.4,0
51.92,-23.07,15.69,11.96,-4.52,12.33,0.83,0.17,-0.22,0
14.78,-35.73,-3.81,3.6,-7.2,-41.93,-0.76,0.41,0.28,2
41.87,4.75,-45.69,-0.67,0.0,0.43,-0.04,-0.03,1.0,3
49.0,-13.5,21.25,27.16,-6.96,67.93,0.91,0.14,-0.44,0
31.45,-37.65,-2.33,-1.65,-13.06,-67.2,1.05,-0.76,-0.44,1
56.03,-27.76,6.76,24.48,2.62,88.01,1.54,1.8,0.8,1
32.95,-37.46,0.38,-47.06,44.31,-195.92,4.0,3.56,-0.25,1
51.98,-18.02,19.89,101.38,-5.07,32.65,1.23,-0.09,-0.49,0
52.17,-23.52,17.59,-21.0,52.0,-92.65,1.3,0.15,-0.44,0
41.74,5.03,-48.11,-0.67,0.0,0.49,-0.04,-0.03,1.0,3
44.85,-34.01,10.14,36.74,-81.73,190.92,1.33,0.68,-0.54,1
41.87,4.94,-46.96,-0.92,0.06,0.43,-0.04,-0.03,1.0,3
51.04,-25.92,15.59,66.77,-39.06,53.65,0.4,0.87,0.34,1
29.37,-38.54,4.03,49.87,53.77,114.99,0.42,-1.2,-0.52,1
51.56,-27.03,14.69,-9.64,-0.37,-18.01,0.87,-0.03,-0.47,0
50.04,-8.69,23.6,-44.92,3.36,-40.34,0.85,0.15,-0.29,0
41.43,4.46,-47.17,-0.67,0.06,0.31,-0.04,-0.03,1.0,3
40.42,-37.51,-3.23,9.16,13.0,90.94,-0.1,0.85,0.18,2
48.05,-32.26,11.08,3.42,16.24,2.56,0.62,-0.07,-0.38,0
42.1,5.03,-46.4,-0.55,-0.06,0.55,-0.04,-0.03,1.0,3
17.38,-25.72,26.15,45.65,56.88,14.16,-0.58,0.5,-0.28,2
49.67,-23.51,18.92,26.18,-27.22,47.55,0.85,0.02,-0.35,0
53.31,-30.75,-1.0,-19.84,6.96,-80.38,0.28,0.99,0.19,2
51.2,-19.04,19.85,-56.58,21.91,-47.12,0.97,0.25,-0.24,0
17.11,-22.83,27.72,-6.77,-67.81,-12.21,-0.65,0.38,-0.39,2
49.52,-12.79,22.47,-9.28,34.3,-52.98,0.91,0.36,-0.12,0
42.85,4.9,-46.2,-0.73,-0.06,0.37,-0.04,-0.03,1.0,3
26.0,-19.93,32.62,7.45,65.73,25.33,-0.47,0.38,-0.79,2
51.15,-28.39,13.72,-9.03,-38.33,83.07,1.88,2.99,0.07,1
42.5,4.6,-47.69,-0.79,-0.06,0.55,-0.04,-0.03,1.0,3
50.5,-12.54,22.63,-46.26,38.82,-17.52,1.1,0.1,-0.31,0
47.69,-2.61,22.39,-37.72,10.99,-4.15,0.82,0.3,-0.3,0
50.38,-17.92,20.78,69.34,-55.6,59.45,1.04,-0.2,-0.49,0
47.97,-8.73,23.68,6.1,10.38,-37.66,0.95,0.43,-0.33,0
59.73,-17.19,16.66,-0.06,55.73,15.5,0.45,0.46,-0.88,2
48.21,-7.19,25.52,25.39,-10.74,59.51,1.15,0.15,-0.61,0
35.83,-37.35,-2.03,-10.19,-9.95,-62.26,-0.3,0.78,0.2,2
3.21,-17.49,21.28,8.12,72.88,21.79,-0.79,0.32,-0.09,2
47.06,-34.42,-3.14,30.64,5.0,68.48,0.06,0.91,0.18,2
48.79,-12.34,22.24,-4.94,-0.37,32.17,1.1,0.21,-0.5,0
56.36,-28.71,-3.32,-5.74,11.17,-103.21,0.49,1.04,0.15,2
32.35,-15.7,35.64,3.78,-115.48,-22.4,-0.26,0.36,-0.88,2
44.08,-35.69,0.26,1.65,-9.95,-78.61,0.02,0.9,0.1,2
51.49,-27.11,14.58,-70.07,25.15,-36.07,0.91,0.05,-0.39,0
42.43,4.64,-47.61,-0.55,0.06,0.49,-0.04,-0.03,1.0,3
32.81,-37.44,3.85,-23.74,57.98,-104.8,1.98,-0.81,-0.1,1
19.87,-36.35,-5.88,5.13,-4.27,5.37,-0.59,0.23,0.39,2
27.01,-37.63,0.85,53.65,4.88,-3.36,1.22,-0.77,-0.31,1
43.68,-24.6,28.3,13.37,77.94,22.22,-0.16,0.58,-0.9,2
20.51,-16.74,32.26,8.85,97.11,17.15,-0.52,0.3,-0.63,2
48.82,-8.86,24.44,-11.9,10.25,-45.1,0.88,0.38,-0.17,0
28.65,-37.88,-3.5,5.37,-1.1,-26.25,-0.52,0.76,0.23,2
51.38,-30.3,11.21,-14.89,11.35,-28.99,0.95,0.0,-0.49,0
49.38,-16.91,21.22,67.08,4.88,18.25,1.17,0.01,-0.47,0
50.72,-10.9,23.24,-31.62,36.8,-50.72,0.87,0.22,-0.12,0
50.62,-22.95,18.09,-54.81,11.35,-37.84,0.76,0.27,-0.35,0
42.64,4.85,-47.08,-0.61,0.12,0.37,-0.04,-0.03,1.0,3
42.58,-23.84,28.86,-13.43,-67.63,-26.73,-0.19,0.56,-0.89,2
42.36,5.19,-48.03,-0.85,-0.18,0.43,-0.04,-0.03,1.0,3
50.17,-24.13,19.36,-34.67,41.93,-76.29,1.27,0.03,-0.44,0
50.07,-14.64,22.41,-15.26,22.09,-37.35,0.79,0.26,-0.2,0
51.55,-33.3,5.29,-31.92,4.21,-27.59,0.86,-0.1,-0.45,0
26.73,-37.56,1.65,-5.25,35.77,-62.62,1.13,-0.97,-0.59,1
49.0,-9.74,23.56,-42.79,10.93,-27.04,0.88,0.44,-0.13,0
49.58,-14.48,22.49,67.5,-27.83,65.67,1.06,-0.31,-0.61,0
56.32,-21.68,18.79,17.58,-45.17,-39.73,0.45,0.69,-0.58,2
42.61,4.76,-46.85,-0.67,-0.12,0.37,-0.04,-0.03,1.0,3
49.95,-27.67,16.14,61.71,-9.64,-1.28,0.74,-0.05,-0.39,0
27.61,-38.0,3.52,6.53,14.65,83.98,0.61,-1.25,-0.53,1
41.86,4.8,-46.48,-0.67,0.0,0.55,-0.04,-0.03,1.0,3
34.74,-35.55,-2.17,-39.18,56.03,-58.53,0.85,-0.38,-0.34,1
48.63,-13.6,24.1,74.1,-32.35,55.66,1.1,-0.24,-0.53,0
53.0,-12.85,26.07,10.5,99.24,28.93,0.35,0.3,-1.0,2
32.31,-36.9,1.56,-41.87,2.01,-128.78,3.39,4.0,-0.03,1
40.41,-36.22,-6.24,-14.16,3.36,-115.17,0.07,0.89,0.2,2
42.8,4.6,-46.5,-0.85,-0.12,0.49,-0.04,-0.03,1.0,3
47.63,-8.91,25.02,18.74,9.58,7.32,1.16,0.19,-0.51,0
29.09,-33.42,-0.07,72.63,-2.87,86.12,0.38,-0.4,-0.47,1
48.46,-32.23,9.69,-15.14,-5.0,-27.28,0.91,-0.05,-0.44,0
29.39,-30.98,-0.92,-111.08,-9.03,121.58,0.37,-0.87,-0.48,1
49.99,-13.7,22.55,-1.04,3.3,5.07,0.87,0.22,-0.24,0
28.81,-37.77,-2.08,13.61,30.15,-138.12,3.31,0.76,-0.93,1
49.4,-13.95,23.14,31.68,0.85,4.52,1.09,0.2,-0.35,0
48.32,-9.48,24.13,-10.86,4.21,-71.04,0.91,0.2,-0.25,0
42.41,4.69,-47.19,-0.67,0.06,0.49,-0.04,-0.03,1.0,3
50.71,-10.85,22.36,1.59,11.54,-56.64,0.92,0.4,-0.11,0
39.34,-39.61,3.22,112.92,8.97,180.85,0.18,-1.25,-0.42,1
33.18,-37.83,-0.04,20.32,-126.89,179.26,0.14,-0.61,-0.11,1
52.4,-29.74,7.67,-4.58,-72.45,72.75,0.65,-0.37,-0.41,0
47.42,-11.01,23.28,10.31,-4.15,12.21,1.11,0.09,-0.42,0
48.54,-9.73,24.54,38.7,-18.55,45.17,1.34,0.36,-0.5,0
39.1,-36.32,9.19,49.56,62.93,63.05,0.91,0.23,-0.45,1
50.6,-27.36,13.88,-31.68,-3.66,-12.63,0.93,-0.17,-0.43,0
51.26,-26.65,13.79,-78.61,33.26,-38.7,0.99,-0.07,-0.6,0
50.23,-12.77,21.18,-42.66,17.4,-50.23,0.98,0.16,-0.2,0
51.27,-28.22,14.64,-115.48,86.67,38.57,-0.51,0.5,0.01,1
35.45,-37.7,-2.03,131.23,-72.63,45.65,0.05,-0.86,-0.46,1
50.12,-29.13,13.66,-76.6,16.72,-74.89,0.9,0.1,-0.57,0
47.73,-14.29,24.07,-1.28,-3.85,29.66,1.11,0.33,-0.5,0
44.87,-14.7,30.71,5.68,-27.89,-20.39,-0.1,0.26,-0.95,2
38.44,-17.13,34.03,11.66,74.28,11.9,-0.12,0.34,-0.83,2
39.56,-15.99,33.87,1.22,-74.77,-23.99,-0.19,0.38,-1.01,2
44.48,-36.25,6.63,95.4,-33.63,227.72,1.74,0.53,-0.1,1
49.21,-15.04,22.55,21.79,4.15,36.62,0.95,0.26,-0.38,0
51.72,-26.87,16.33,-83.92,32.59,-66.53,1.37,-0.01,-0.57,0
23.27,-38.39,-2.2,-15.2,-8.42,-78.86,-0.49,0.5,0.26,2
50.73,-30.6,11.06,10.31,-4.39,51.33,1.38,2.32,0.41,1
49.23,-14.97,22.17,28.02,-17.76,78.74,0.91,0.17,-0.39,0
62.6,-18.47,2.67,-2.81,-5.55,-21.18,0.74,1.12,0.16,2
54.66,-23.5,13.87,91.13,26.55,-40.34,-0.92,0.73,0.14,1
43.58,-36.34,2.22,-234.74,68.12,-313.54,0.63,1.25,0.47,1
49.57,-30.6,12.17,-58.41,8.61,19.96,-0.59,0.43,0.14,1
48.33,-19.15,21.06,37.78,-15.5,16.72,0.92,-0.02,-0.51,0
64.11,-16.08,1.16,-3.85,-5.19,-6.77,0.75,0.93,0.1,2
49.79,-27.06,15.93,-32.47,4.21,-6.77,0.94,-0.26,-0.53,0
42.64,5.09,-46.84,-0.85,-0.06,0.61,-0.04,-0.03,1.0,3
49.01,-13.83,23.07,23.68,4.64,47.06,0.96,0.34,-0.42,0
47.69,-8.42,24.8,42.48,1.77,-6.29,0.87,0.44,-0.33,0
41.59,4.49,-47.27,-0.67,-0.12,0.43,-0.04,-0.03,1.0,3
62.24,-19.21,3.56,-13.12,-1.04,44.13,0.81,1.02,0.12,2
60.5,-23.78,1.61,4.33,6.59,-80.93,0.62,0.86,0.13,2
58.42,-26.46,-1.09,-11.05,8.61,-79.47,0.63,0.95,0.19,2
50.4,-22.38,17.44,-72.39,4.27,-18.19,1.01,0.0,-0.52,0
41.93,5.26,-46.84,-0.67,0.0,0.31,-0.04,-0.03,1.0,3
49.07,-26.83,16.47,-1.28,-3.42,4.09,0.69,-0.12,-0.37,0
49.4,-14.1,22.14,71.78,-17.03,45.1,1.11,-0.11,-0.62,0
50.17,-19.1,18.92,46.88,-16.11,38.94,1.05,0.1,-0.41,0
50.72,-31.93,10.68,-36.07,18.37,-19.9,0.76,-0.06,-0.52,0
46.94,-7.17,24.73,9.4,-2.69,13.37,1.11,0.24,-0.41,0
15.78,-29.68,19.92,-16.72,-86.24,-60.85,-0.58,0.5,-0.25,2
33.63,-37.52,-1.11,9.46,2.87,66.1,-0.27,0.73,0.18,2
62.52,-20.52,4.09,-7.26,0.73,30.09,0.5,1.05,0.12,2
60.45,-18.64,14.12,-9.28,-22.58,4.27,0.48,0.5,-0.87,2
49.78,-30.08,12.1,62.56,-13.43,90.88,1.28,2.41,0.06,1
50.62,-19.51,20.32,-23.13,24.96,-39.67,1.02,0.08,-0.26,0
49.61,-33.76,-2.64,-7.69,1.22,-95.34,0.22,1.07,0.17,2
42.2,5.22,-47.85,-0.67,0.0,0.49,-0.04,-0.03,1.0,3
50.11,-24.63,16.02,-30.09,16.72,-58.78,1.13,0.0,-0.42,0
41.67,4.98,-46.18,-0.79,0.12,0.55,-0.04,-0.03,1.0,3
41.72,4.94,-46.68,-0.73,0.0,0.43,-0.04,-0.03,1.0,3
35.02,-15.31,33.36,1.59,-60.79,8.42,-0.35,0.35,-0.98,2
48.4,-8.61,23.28,67.32,-2.26,29.6,1.02,0.15,-0.65,0
44.52,-34.24,9.33,36.32,-9.83,54.2,3.43,4.0,0.33,1
34.47,-38.33,-0.26,-79.28,-76.48,182.43,0.08,-1.18,-0.4,1
52.09,-29.46,12.18,26.25,-32.29,65.67,0.68,-0.16,-0.43,0
51.4,-31.29,8.45,-111.02,20.14,-250.31,-0.05,0.55,0.44,1
63.77,-17.29,3.04,-19.59,4.94,-62.44,0.82,0.71,0.15,2
49.29,-25.32,17.09,23.8,-19.65,40.1,0.8,-0.01,-0.36,0
49.69,-13.82,28.54,-11.47,62.13,22.16,0.03,0.32,-1.18,2
42.94,-36.11,7.28,125.06,5.13,85.88,0.8,0.86,-0.68,1
62.65,-20.35,2.19,-9.34,-13.24,47.12,0.55,1.11,0.14,2
54.11,-27.29,14.07,-164.18,71.53,-83.31,-0.53,0.68,0.44,1
41.37,5.2,-47.35,-0.61,-0.06,0.31,-0.04,-0.03,1.0,3
49.73,-12.5,22.91,-6.47,27.89,-53.77,0.98,0.26,-0.15,0
47.95,-15.32,22.58,44.37,-14.47,27.59,0.99,0.04,-0.55,0
6.54,-23.79,20.21,-1.34,-45.35,-6.71,-0.83,0.4,-0.07,2
51.6,-9.56,20.56,13.98,-21.0,19.84,0.8,0.43,-0.33,0
52.21,-24.19,13.53,24.72,-13.73,-14.65,0.94,0.06,-0.28,0
16.97,-29.15,21.96,11.78,56.4,22.71,-0.8,0.57,-0.31,2
48.63,-34.22,-1.76,-17.15,5.0,-90.15,0.18,1.0,0.15,2
48.27,-12.21,23.65,65.0,-26.61,39.61,1.19,0.0,-0.67,0
47.63,-9.06,24.32,11.41,1.77,-4.27,1.13,-0.13,-0.43,0
42.36,4.42,-47.27,-0.67,0.06,0.43,-0.04,-0.03,1.0,3
37.56,-21.9,31.2,-0.61,-96.86,-27.95,-0.17,0.47,-0.93,2
42.64,4.9,-46.52,-0.61,0.06,0.43,-0.04,-0.03,1.0,3
23.86,-17.42,34.14,2.56,71.23,14.95,-0.6,0.33,-0.67,2
49.1,-12.46,23.06,33.51,-6.23,52.12,1.14,0.28,-0.46,0
49.65,-19.42,19.23,3.97,-10.93,22.71,0.76,-0.06,-0.43,0
49.28,-10.34,22.89,71.66,6.84,32.23,1.04,0.02,-0.52,0
42.49,4.59,-46.53,-0.79,0.12,0.37,-0.04,-0.03,1.0,3
42.29,4.77,-47.17,-0.67,0.06,0.31,-0.04,-0.03,1.0,3
63.24,-18.53,2.53,3.3,-6.59,2.38,0.7,1.1,0.17,2
32.93,-18.08,33.3,23.19,80.51,20.02,-0.3,0.37,-0.88,2
49.26,-19.36,20.62,93.99,-2.2,29.36,1.17,0.03,-0.49,0
50.95,-16.11,20.06,-55.85,5.43,-12.57,1.06,0.14,-0.27,0
49.73,-12.38,22.3,10.8,28.08,-21.0,0.86,0.57,-0.26,0
41.88,4.52,-47.45,-0.61,-0.06,0.43,-0.04,-0.03,1.0,3
46.53,-32.53,12.13,-32.47,-59.57,218.51,1.71,0.12,-0.51,1
29.99,-36.74,0.09,12.76,39.18,-69.27,0.88,-0.72,-0.41,1
38.0,-13.46,33.12,1.95,104.55,4.82,-0.14,0.26,-1.03,2
27.84,-38.24,-1.59,6.77,55.48,-89.9,1.52,-0.07,-0.18,1
49.38,-16.69,21.35,61.52,-4.88,11.9,1.19,0.03,-0.43,0
50.62,-9.29,22.73,-27.22,20.14,-23.13,0.94,0.25,-0.25,0
48.38,-32.59,10.41,68.66,-81.36,174.56,2.06,0.91,0.18,1
41.97,4.54,-47.77,-0.73,-0.06,0.55,-0.04,-0.03,1.0,3
61.49,-21.8,0.95,8.67,-13.31,102.97,0.72,0.84,0.13,2
27.6,-36.41,-2.4,-33.51,97.96,-75.68,1.1,-0.71,-0.6,1
50.99,-25.84,16.37,71.78,-56.95,108.34,1.15,-0.12,-0.37,0
50.78,-14.97,21.46,-21.79,14.89,-30.64,0.83,0.15,-0.22,0
42.49,4.88,-47.86,-0.55,0.0,0.43,-0.04,-0.03,1.0,3
42.29,4.88,-46.68,-0.61,0.12,0.43,-0.04,-0.03,1.0,3
42.37,5.66,-47.25,-0.55,-0.06,0.31,-0.04,-0.03,1.0,3
9.81,-17.98,27.98,1.95,33.02,6.04,-0.89,0.28,-0.36,2
50.06,-22.12,17.98,-27.53,29.3,-88.44,1.27,0.06,-0.37,0
42.05,4.49,-46.5,-0.85,-0.06,0.49,-0.04,-0.03,1.0,3
50.78,-25.22,16.42,-22.16,-7.2,-15.99,1.08,-0.07,-0.49,0
50.76,-19.46,19.41,62.32,-57.5,64.94,0.88,-0.12,-0.5,0
52.22,-27.84,13.02,47.67,-48.77,181.7,3.68,1.5,0.29,1
51.17,-14.97,21.28,-67.44,25.09,-40.34,1.03,0.05,-0.24,0
41.58,4.82,-46.12,-0.85,-0.06,0.49,-0.04,-0.03,1.0,3
42.42,4.86,-47.64,-0.55,0.0,0.49,-0.04,-0.03,1.0,3
6.15,-16.52,24.41,0.49,-68.24,-12.45,-0.69,0.23,-0.11,2
21.68,-37.11,-7.52,7.2,0.55,5.98,-0.61,0.27,0.35,2
50.0,-23.8,16.78,-79.9,8.24,-46.45,1.04,0.05,-0.41,0
49.22,-34.47,3.54,-167.72,-129.27,-351.26,0.37,1.33,0.46,1
48.17,-8.8,23.34,18.74,-17.58,30.76,1.03,0.15,-0.43,0
41.7,4.83,-47.25,-0.79,0.0,0.43,-0.04,-0.03,1.0,3
13.22,-29.35,18.64,17.15,40.34,16.78,-0.8,0.51,-0.15,2
41.8,4.44,-47.52,-0.55,0.06,0.49,-0.04,-0.03,1.0,3
49.08,-11.72,22.95,71.41,-33.2,54.14,1.27,0.1,-0.46,0
32.54,-35.57,-1.12,102.78,-32.17,72.69,0.0,-1.31,-0.76,1
41.63,5.4,-45.68,-0.61,0.06,0.37,-0.04,-0.03,1.0,3
41.48,4.74,-46.4,-0.61,0.12,0.55,-0.04,-0.03,1.0,3
42.57,5.02,-47.01,-0.85,-0.06,0.43,-0.04,-0.03,1.0,3
48.89,-9.63,24.83,-3.48,26.55,-29.11,0.84,0.33,-0.14,0
51.77,-14.62,20.45,-46.51,35.4,-61.52,0.96,0.12,-0.19,0
41.86,5.04,-47.01,-0.61,0.06,0.24,-0.04,-0.03,1.0,3
50.96,-20.35,18.23,-49.74,10.93,-48.71,1.22,-0.04,-0.47,0
36.67,-15.59,34.33,-6.53,91.8,21.61,-0.21,0.38,-0.94,2
53.64,-29.38,12.77,-6.47,-12.63,34.0,0.61,-0.19,-0.39,0
42.18,5.16,-47.3,-0.67,0.0,0.37,-0.04,-0.03,1.0,3
62.35,-19.29,5.55,-61.95,-22.71,-38.57,0.76,1.1,-0.19,2
53.71,-19.68,15.77,-13.73,-9.28,9.7,0.72,0.21,0.03,0
38.13,-36.45,2.33,-13.92,-17.7,-94.97,3.43,-0.37,-0.83,1
50.76,-13.35,22.0,-24.23,25.63,-58.78,0.89,0.15,-0.21,0
26.75,-23.11,30.25,10.93,-68.18,-30.88,-0.38,0.41,-0.51,2
42.05,4.44,-47.96,-0.55,0.0,0.55,-0.04,-0.03,1.0,3
42.2,5.13,-47.91,-0.67,-0.06,0.49,-0.04,-0.03,1.0,3
50.21,-11.8,23.28,71.78,-5.92,17.03,1.1,-0.07,-0.56,0
51.88,-17.81,18.52,-47.36,25.51,-47.3,1.11,0.24,-0.14,0
41.78,4.57,-46.61,-0.49,0.0,0.61,-0.04,-0.03,1.0,3
52.32,-25.99,13.0,34.0,-57.13,68.91,0.78,-0.18,-0.34,0
42.54,4.91,-48.32,-0.92,0.06,0.43,-0.04,-0.03,1.0,3
49.62,-26.57,14.78,-10.31,-8.67,-25.02,0.92,-0.04,-0.42,0
51.31,-24.98,22.69,-34.48,-71.47,-64.58,0.36,0.8,-0.71,2
45.36,-35.9,7.48,30.33,-25.21,161.74,2.66,1.5,0.42,1
48.4,-12.07,22.89,2.62,23.74,-41.93,0.84,0.31,-0.13,0
48.69,-28.69,15.08,-14.22,0.92,-17.7,0.83,-0.03,-0.44,0
51.64,-26.29,12.87,-48.34,-4.58,-23.01,1.08,-0.06,-0.5,0
42.54,5.21,-46.37,-0.79,0.0,0.37,-0.04,-0.03,1.0,3
41.89,4.83,-46.88,-0.85,-0.06,0.43,-0.04,-0.03,1.0,3
42.38,-36.84,5.43,-146.67,57.56,-298.77,0.47,1.08,0.48,1
42.61,5.09,-46.96,-0.61,0.06,0.31,-0.04,-0.03,1.0,3
47.42,-11.71,22.92,7.93,5.68,34.0,0.77,0.17,-0.37,0
32.65,-36.04,-0.37,86.61,34.97,-19.29,0.33,-1.05,-0.69,1
26.56,-21.08,31.96,12.15,61.58,10.25,-0.52,0.44,-0.68,2
47.31,-35.31,7.78,-19.65,14.22,75.99,0.94,1.6,0.37,1
56.48,-28.87,4.05,25.76,4.33,119.75,0.64,1.02,0.03,2
28.43,-37.48,-8.59,15.38,4.52,55.24,-0.48,0.48,0.29,2
52.7,-28.33,13.21,36.68,-24.23,144.53,1.37,2.1,0.2,1
39.01,-36.08,-4.41,-11.96,2.44,-74.16,-0.18,0.73,0.32,2
26.14,-37.66,-7.98,-3.17,-12.33,-85.21,-0.5,0.51,0.3,2
51.29,-26.5,14.86,-127.2,67.02,-56.64,0.91,0.28,-0.37,0
49.76,-21.56,20.0,6.84,-6.1,20.51,0.85,-0.09,-0.37,0
28.32,-15.99,35.21,9.52,109.68,23.62,-0.37,0.34,-0.89,2
41.98,5.53,-46.95,-0.61,-0.06,0.67,-0.04,-0.03,1.0,3
40.44,-36.85,-3.75,27.34,8.79,98.02,-0.05,0.81,0.19,2
49.58,-19.09,19.25,-28.38,0.85,-17.94,0.96,-0.07,-0.48,0
42.42,5.26,-46.33,-0.61,0.12,0.43,-0.04,-0.03,1.0,3
50.44,-21.79,18.58,-6.59,-4.88,6.59,0.76,0.02,-0.39,0
47.92,-35.62,4.21,-201.23,-9.89,-198.61,0.72,0.99,0.52,1
29.08,-37.92,-1.01,-8.79,35.77,-102.48,1.1,-1.03,-0.46,1
29.38,-37.4,-1.72,-38.82,28.75,-134.64,3.78,4.0,-0.56,1
57.75,-11.0,19.7,-7.45,71.04,20.63,0.35,0.35,-1.12,2
42.27,5.4,-47.09,-0.67,0.0,0.49,-0.04,-0.03,1.0,3
57.24,-11.77,21.5,4.21,-64.76,-25.51,0.48,0.34,-1.02,2
42.19,4.63,-48.5,-0.67,-0.06,0.31,-0.04,-0.04,1.0,3
42.25,4.82,-47.83,-0.67,-0.06,0.49,-0.04,-0.03,1.0,3
50.04,-21.92,18.53,-70.43,4.76,-22.64,0.97,-0.15,-0.54,0
43.8,-36.65,6.29,49.62,44.07,124.39,0.09,0.93,0.02,2
54.98,-29.76,-0.55,-5.07,20.08,-109.25,0.46,1.1,0.16,2
50.35,-19.58,20.39,74.1,-31.13,28.5,0.99,-0.12,-0.55,0
50.0,-33.61,-0.42,-5.86,1.95,115.11,0.28,0.99,0.13,2
36.39,-36.02,2.0,-109.62,9.89,-184.08,3.75,4.0,-0.28,1
39.11,-36.91,-3.94,-5.74,-5.25,-72.94,-0.12,0.95,0.21,2
41.67,4.37,-46.88,-0.85,-0.06,0.49,-0.04,-0.03,1.0,3
17.59,-36.54,-1.42,19.96,1.04,22.4,-0.71,0.26,0.28,2
49.71,-15.17,22.19,-43.4,12.33,-67.57,1.21,-0.47,-0.33,0
42.32,4.76,-47.86,-0.79,0.0,0.37,-0.04,-0.03,1.0,3
51.31,-32.54,8.79,-28.08,-11.23,11.6,0.69,-0.23,-0.49,0
49.99,-30.83,9.27,-39.61,-31.25,123.72,3.34,1.63,0.02,1
48.27,-11.83,22.84,-24.66,23.86,-19.59,0.83,0.12,-0.21,0
64.05,-13.21,2.82,-4.64,3.78,-41.26,0.9,0.66,0.14,2
10.07,-17.1,27.33,16.78,92.22,11.47,-0.71,0.33,-0.33,2
41.33,5.04,-47.85,-0.98,-0.12,0.55,-0.04,-0.03,1.0,3
50.24,-23.23,18.97,1.65,-5.13,14.83,0.8,0.05,-0.28,0
48.8,-27.93,14.78,18.01,-4.39,20.63,0.72,-0.07,-0.35,0
49.83,-16.2,22.31,-63.66,9.58,-47.0,1.12,0.11,-0.3,0
61.82,-19.95,1.89,9.83,19.35,-71.96,0.71,0.77,0.12,2
50.74,-18.42,19.43,-52.61,-3.97,-11.6,0.98,0.14,-0.3,0
42.93,4.93,-46.36,-0.67,0.0,0.37,-0.04,-0.03,1.0,3
42.04,4.83,-47.07,-0.73,0.0,0.37,-0.04,-0.04,1.0,3
25.63,-37.51,1.14,58.72,44.92,-22.09,1.06,-1.29,-0.46,1
32.39,-36.19,-0.42,54.2,65.67,-84.17,0.76,-0.55,-0.34,1
51.04,-20.51,19.91,99.61,-20.94,34.61,1.23,-0.1,-0.52,0
42.19,4.79,-47.33,-0.67,-0.12,0.49,-0.04,-0.03,1.0,3
55.99,-15.61,22.22,-8.61,-75.56,-28.02,0.43,0.42,-1.1,2
42.21,4.59,-46.7,-0.73,0.06,0.49,-0.04,-0.03,1.0,3
50.09,-13.9,22.58,-16.11,34.91,-52.37,0.96,0.05,-0.25,0
51.53,-26.7,14.05,68.05,-64.94,72.08,0.92,-0.23,-0.38,0
42.07,5.32,-46.67,-0.79,0.0,0.49,-0.04,-0.03,1.0,3
41.8,4.86,-46.28,-0.55,-0.12,0.49,-0.04,-0.03,1.0,3
10.03,-16.3,27.61,5.13,81.54,12.08,-0.67,0.28,-0.27,2
52.05,-29.19,11.17,21.67,-33.26,149.11,2.49,2.71,-0.1,1
22.33,-22.73,30.22,-4.88,-58.11,-18.68,-0.64,0.46,-0.63,2
52.82,-17.61,15.37,-11.72,29.11,-44.8,0.96,0.23,-0.08,0
52.58,-23.3,15.34,-26.55,-0.67,-16.78,0.9,-0.18,-0.43,0
42.29,4.85,-47.34,-0.92,0.06,0.43,-0.04,-0.03,1.0,3
47.8,-9.58,25.45,-2.01,-11.78,52.0,1.05,0.14,-0.56,0
20.83,-37.68,-1.15,36.32,28.02,-116.15,1.29,-0.8,-0.22,1
50.63,-31.53,9.51,-156.19,28.26,-291.44,0.15,0.73,0.33,1
42.68,4.77,-46.58,-0.85,0.12,0.49,-0.04,-0.03,1.0,3
29.43,-37.85,0.32,65.12,58.04,45.96,0.67,-1.51,-0.46,1
41.75,4.72,-47.03,-0.79,0.06,0.49,-0.04,-0.03,1.0,3
39.05,-38.12,0.31,-20.2,-100.83,227.72,0.02,-1.23,-0.51,1
53.41,-26.75,14.23,17.82,40.41,-43.95,-0.85,0.83,0.46,1
51.16,-32.65,-3.34,-17.7,7.2,-99.85,0.27,1.01,0.16,2
45.65,-35.27,7.74,-171.87,28.2,-397.64,0.32,1.54,0.13,1
48.89,-11.4,24.05,-26.12,-2.62,-33.69,0.87,0.02,-0.31,0
36.63,-38.17,1.99,52.43,-72.33,134.34,0.08,-0.84,-0.45,1
52.16,-19.81,16.75,62.26,-40.71,71.9,1.05,0.07,-0.3,0
51.27,-30.16,11.82,15.26,-28.5,24.23,0.65,-0.25,-0.46,0
42.32,4.66,-45.73,-0.79,-0.06,0.55,-0.04,-0.03,1.0,3
42.24,4.87,-47.69,-0.67,-0.06,0.49,-0.04,-0.03,1.0,3
47.83,-12.22,24.9,2.93,-6.1,7.32,1.19,0.2,-0.49,0
42.82,5.22,-47.05,-0.79,-0.06,0.37,-0.04,-0.03,1.0,3
24.6,-20.23,31.43,-7.93,-122.92,-17.94,-0.46,0.39,-0.72,2
52.91,-29.3,10.58,12.88,-9.7,-11.35,-0.76,0.4,0.08,1
51.79,-19.58,19.73,-31.07,-5.86,-11.96,0.68,-0.14,-0.43,0
42.26,5.29,-45.35,-0.73,-0.06,0.43,-0.04,-0.03,1.0,3
51.28,-28.63,13.65,0.85,-1.16,-28.87,0.87,-0.07,-0.42,0
27.05,-37.22,-0.06,11.23,87.04,-203.31,3.37,3.47,-0.42,1
43.07,5.59,-47.11,-0.55,0.0,0.37,-0.04,-0.03,1.0,3
48.73,-15.47,22.39,89.54,-35.83,53.77,1.19,0.04,-0.62,0
50.98,-25.38,16.35,-76.78,19.04,-49.56,0.95,0.12,-0.47,0
63.76,-14.61,2.43,9.89,1.77,16.6,0.8,0.88,0.07,2
45.75,-36.02,0.42,-14.47,-11.35,-99.79,0.18,1.01,0.14,2
61.98,-20.28,2.1,-7.93,2.87,-68.6,0.77,0.98,0.15,2
23.05,-17.33,33.42,25.45,-97.11,-18.25,-0.55,0.41,-0.71,2
40.89,-36.49,3.55,-188.66,40.16,-217.77,1.42,1.66,0.55,1
61.52,-20.2,7.09,-1.89,-7.75,102.97,0.81,1.05,-0.02,2
42.43,4.99,-47.58,-0.85,0.0,0.43,-0.04,-0.03,1.0,3
42.41,4.91,-47.17,-0.85,0.18,0.37,-0.04,-0.03,1.0,3
49.24,-31.82,11.08,4.39,4.52,-48.28,0.85,-0.07,-0.38,0
48.0,-11.01,24.98,30.82,4.21,34.67,0.93,0.11,-0.47,0
49.12,-12.32,21.67,-29.6,23.25,-53.47,0.99,0.13,-0.19,0
59.62,-24.51,4.24,-64.15,-12.7,-79.1,0.66,0.97,-0.03,2
51.14,-19.84,19.04,4.03,14.95,-59.81,1.21,-0.01,-0.32,0
27.64,-23.79,30.24,-12.33,-44.8,-23.68,-0.5,0.47,-0.6,2
51.25,-32.1,8.31,30.82,29.66,-29.91,-0.63,0.49,-0.01,1
36.39,-18.09,33.02,-5.25,-101.26,-38.21,-0.19,0.43,-1.03,2
42.25,5.07,-47.24,-0.67,-0.06,0.31,-0.04,-0.03,1.0,3
52.27,-21.35,18.37,-71.59,32.29,-54.87,1.3,-0.23,-0.56,0
49.72,-29.53,14.69,-20.02,-18.92,44.07,0.57,-0.18,-0.4,0
48.18,-18.55,27.36,0.85,77.76,19.84,0.03,0.44,-0.91,2
31.6,-36.4,-2.97,31.01,33.51,-43.21,0.63,-0.06,-0.44,1
41.92,-36.32,0.94,-150.88,57.07,-201.72,3.23,-0.12,0.74,1
49.76,-28.61,14.18,-59.33,-7.45,-26.37,0.82,-0.06,-0.41,0
49.69,-30.6,13.37,10.19,14.04,52.8,1.64,2.92,0.18,1
50.39,-28.92,13.95,-8.18,38.94,30.64,-0.48,0.28,0.16,1
33.08,-16.89,33.97,3.85,-96.07,-30.82,-0.32,0.38,-0.98,2
50.84,-7.62,21.85,-11.17,1.83,-1.22,0.8,0.48,-0.17,0
49.55,-15.7,21.7,36.74,4.15,9.22,0.99,0.3,-0.33,0
8.53,-29.42,13.94,13.49,-15.63,1.4,-0.69,0.45,0.13,2
51.83,-29.79,11.17,-99.24,-78.19,49.38,-0.6,0.78,0.25,1
48.38,-32.97,8.84,22.09,-31.56,58.35,3.72,3.25,-0.07,1
50.87,-22.79,18.58,67.63,-40.59,28.56,0.87,-0.22,-0.49,0
51.66,-24.96,14.5,25.09,-5.68,15.32,0.73,-0.04,-0.34,0
50.17,-11.45,22.13,-18.55,6.16,-6.9,0.84,0.29,-0.26,0
52.88,-27.53,10.8,-52.55,13.98,-23.07,0.84,0.1,-0.27,0
0.54,-17.13,18.66,-3.36,-48.71,-6.23,-0.71,0.15,0.2,2
22.09,-37.39,-7.37,-9.03,-3.72,-61.65,-0.56,0.39,0.3,2
60.08,-14.1,15.08,-14.95,-7.2,6.71,0.43,0.35,-0.93,2
50.67,-22.95,16.96,-39.73,8.67,-15.32,0.81,0.13,-0.32,0
48.14,-11.16,23.94,5.07,14.22,1.46,1.33,0.26,-0.24,0
24.79,-38.12,-3.89,-7.39,-5.07,-92.9,-0.46,0.61,0.24,2
14.29,-15.93,30.83,-12.82,80.14,31.31,-0.74,0.32,-0.62,2
42.96,4.87,-46.63,-0.55,0.0,0.55,-0.04,-0.03,1.0,3
51.83,-22.35,17.66,11.47,-8.18,3.05,0.68,-0.1,-0.38,0
18.03,-36.78,-2.87,4.52,-1.16,-41.87,-0.65,0.27,0.3,2
50.44,-15.97,21.47,-32.71,24.11,-59.39,0.93,0.32,-0.19,0
34.27,-25.09,28.91,-13.98,-62.19,-32.35,-0.39,0.55,-0.79,2
33.36,-37.12,3.04,29.72,17.33,69.09,0.19,-0.68,-0.71,1
42.32,4.74,-47.17,-0.79,0.06,0.37,-0.04,-0.03,1.0,3
33.24,-34.33,-0.78,-8.12,36.13,-92.04,0.99,-0.73,-0.5,1
49.63,-21.62,18.46,69.7,-6.23,23.19,1.15,-0.01,-0.46,0
37.95,-35.6,-2.88,120.24,16.6,3.54,0.19,-0.59,-0.74,1
50.77,-29.71,11.16,17.94,-5.43,11.47,0.65,-0.04,-0.31,0
60.61,-23.85,1.17,3.66,-7.14,80.26,0.68,1.01,0.12,2
31.93,-37.19,0.51,15.81,60.79,-159.48,4.0,3.26,-0.63,1
42.21,4.83,-46.62,-0.67,0.06,0.37,-0.04,-0.03,1.0,3
51.72,-22.62,18.1,36.38,-39.86,81.48,1.09,0.01,-0.42,0
42.32,5.18,-47.3,-0.85,-0.12,0.61,-0.04,-0.03,1.0,3
50.66,-13.29,21.15,-68.24,49.5,-55.54,1.04,0.06,-0.18,0
44.93,-36.45,1.35,100.65,-143.49,148.19,0.55,-0.38,-0.16,1
42.99,4.69,-46.35,-0.79,0.06,0.49,-0.04,-0.03,1.0,3
51.65,-23.29,18.2,16.48,-29.97,26.43,0.6,-0.07,-0.35,0
4.7,-23.0,18.43,1.83,46.75,7.45,-0.86,0.33,0.02,2
33.51,-17.13,33.11,10.01,100.28,26.79,-0.25,0.34,-0.76,2
61.23,-13.56,10.35,4.03,5.13,5.25,0.55,0.38,-0.83,2
48.25,-28.22,14.86,-19.29,-5.31,-29.85,0.95,-0.06,-0.5,0
42.6,4.69,-47.42,-0.85,0.06,0.37,-0.04,-0.03,1.0,3
50.02,-11.08,23.75,-7.02,-0.49,-9.4,0.95,-0.08,-0.29,0
42.5,4.96,-46.35,-0.73,0.0,0.37,-0.04,-0.03,1.0,3
31.48,-14.73,33.95,5.07,91.92,15.56,-0.32,0.27,-0.91,2
34.09,-16.63,33.74,-5.07,106.63,27.1,-0.37,0.32,-0.87,2
44.43,-27.56,23.84,-20.26,-74.4,-74.04,0.1,0.82,-0.64,2
42.3,5.1,-46.02,-0.73,0.06,0.55,-0.04,-0.03,1.0,3
42.41,4.71,-47.49,-0.61,0.06,0.49,-0.04,-0.03,1.0,3
48.65,-9.18,23.97,-32.96,24.72,-24.23,0.83,0.31,-0.23,0
37.18,-20.39,32.19,2.26,-108.22,-34.85,-0.26,0.42,-0.96,2
49.33,-31.14,9.64,19.96,-34.42,159.67,2.35,0.76,-0.5,1
50.48,-17.4,20.73,11.05,3.3,-22.52,0.82,0.0,-0.2,0
57.81,-14.38,20.48,5.49,64.03,26.37,0.44,0.37,-0.99,2
30.49,-38.26,-3.23,3.54,2.01,58.41,-0.41,0.77,0.22,2
35.46,-36.28,0.45,-165.77,2.62,-192.44,2.82,3.06,0.54,1
50.38,-29.68,14.69,34.79,-6.47,60.61,1.02,1.89,0.16,1
48.18,-11.1,24.05,-2.87,16.91,-0.49,0.77,0.21,-0.28,0
49.55,-10.5,23.73,10.62,8.97,-9.03,0.76,0.15,-0.17,0
51.6,-31.86,-2.1,-7.87,7.39,-91.98,0.37,1.04,0.19,2
10.45,-20.12,24.73,7.32,57.31,1.34,-0.88,0.38,-0.31,2
37.27,-37.79,1.61,179.57,-22.09,165.77,-0.12,-0.99,-0.49,1
49.83,-32.64,8.58,-51.7,18.62,-45.17,0.96,-0.31,-0.59,0
50.95,-13.77,21.47,-25.57,-4.15,-12.76,0.74,0.48,-0.26,0
29.43,-35.69,-0.35,126.46,41.32,-8.85,0.54,-0.98,-0.91,1
52.15,-19.21,18.09,-17.82,25.51,-35.52,1.25,-0.35,-0.45,0
48.8,-14.62,21.79,-13.49,16.05,-31.8,0.88,0.03,-0.25,0
36.91,-36.77,-1.25,7.02,-30.7,-40.89,2.1,-1.49,-0.8,1
54.26,-25.78,13.96,-43.46,49.8,-18.43,-0.36,0.57,0.09,1
49.67,-22.75,20.4,78.19,-61.4,64.88,0.95,-0.18,-0.51,0
49.43,-22.73,18.95,28.99,-13.24,37.48,0.83,0.09,-0.31,0
50.02,-17.82,20.35,-31.92,31.98,-55.42,1.22,-0.23,-0.5,0
40.19,-37.28,2.16,192.02,-31.74,102.23,0.97,0.41,-0.43,1
51.31,-16.71,19.8,-62.26,17.03,-58.35,1.13,0.28,-0.24,0
61.67,-23.52,1.43,6.35,-16.17,92.53,0.69,1.14,0.09,2
38.11,-36.79,4.08,-52.25,11.29,-156.86,2.63,4.0,0.01,1
41.91,4.79,-46.66,-0.55,-0.06,0.37,-0.04,-0.03,1.0,3
47.75,-33.12,9.84,-11.72,34.48,74.16,1.65,3.01,0.41,1
42.47,-37.34,4.05,-51.21,-49.13,204.53,2.34,1.7,0.48,1
51.29,-20.19,17.97,43.52,17.27,-8.85,1.03,0.2,-0.27,0
17.86,-37.4,-2.1,-2.44,-4.82,-12.45,-0.63,0.3,0.37,2
42.33,5.03,-47.23,-0.61,0.0,0.24,-0.04,-0.03,1.0,3
27.06,-37.76,0.66,24.05,3.6,-106.45,1.52,-0.81,-0.29,1
49.24,-16.89,19.87,28.2,-3.78,52.8,1.1,0.3,-0.35,0
58.25,-16.86,16.99,-0.24,-35.89,-9.89,0.42,0.4,-0.88,2
51.37,-13.71,20.8,-31.19,23.32,-60.24,0.9,0.13,-0.17,0
42.58,4.99,-47.69,-0.55,-0.06,0.55,-0.04,-0.03,1.0,3
59.11,-25.98,-1.03,-8.61,13.12,-71.17,0.54,0.84,0.17,2
61.68,-20.18,0.11,-23.74,9.83,-59.39,0.78,0.98,0.16,2
49.4,-12.61,22.19,91.43,8.73,30.15,1.15,-0.05,-0.46,0
42.66,4.82,-47.31,-0.79,0.06,0.43,-0.04,-0.03,1.0,3
36.36,-36.23,3.32,118.1,-3.42,62.32,-0.02,-0.89,-0.66,1
25.59,-38.09,-5.98,-6.59,-5.68,-43.7,-0.5,0.62,0.27,2
49.88,-10.78,22.63,-14.34,16.48,-22.34,0.8,0.48,-0.23,0
6.05,-19.53,22.42,13.79,57.13,9.34,-0.9,0.29,-0.13,2
36.93,-37.29,4.82,-92.35,33.39,-106.08,3.37,4.0,-0.68,1
50.44,-25.55,15.53,34.0,-17.09,30.21,0.8,0.03,-0.33,0
48.67,-36.38,4.37,-102.29,-53.53,-89.6,-0.37,0.56,0.31,1
42.07,4.76,-46.0,-0.67,0.12,0.49,-0.04,-0.03,1.0,3
53.34,-31.98,1.39,-17.76,22.83,-91.67,0.47,0.99,0.17,2
49.78,-30.86,9.55,28.44,-28.75,22.58,0.65,-0.24,-0.39,0
63.54,-7.02,4.38,-3.17,-1.28,2.08,0.9,0.42,0.07,2
42.6,4.54,-47.57,-0.67,0.06,0.49,-0.04,-0.03,1.0,3
57.19,-17.8,19.7,1.71,78.25,24.35,0.35,0.44,-0.93,2
61.34,-22.57,3.19,-20.51,22.89,98.57,0.55,1.0,0.04,2
50.4,-13.42,19.86,0.43,13.06,-23.74,0.78,0.27,-0.22,0
61.8,-20.81,6.47,17.15,15.87,47.0,0.63,0.98,-0.24,2
54.59,-27.87,11.32,0.49,-9.7,-12.63,0.78,-0.24,-0.64,0
48.5,-17.16,22.28,7.2,-4.82,45.84,0.95,0.28,-0.36,0
42.15,4.8,-48.11,-0.79,0.0,0.31,-0.04,-0.03,1.0,3
49.8,-32.04,9.33,93.02,-29.3,149.66,3.39,1.8,0.14,1
50.52,-27.61,12.81,38.27,-27.71,2.14,0.88,0.01,-0.21,0
42.26,4.74,-46.81,-0.73,0.18,0.49,-0.04,-0.03,1.0,3
29.08,-36.67,6.35,-174.32,-3.66,208.37,0.29,-1.21,-0.2,1
50.1,-10.96,22.3,26.92,8.3,-4.46,0.96,0.21,-0.27,0
42.46,4.41,-47.11,-0.67,-0.18,0.55,-0.04,-0.03,1.0,3
51.17,-29.54,12.52,54.99,-5.19,-16.6,-0.6,0.43,0.39,1
56.86,-29.38,1.32,5.19,-2.87,131.16,0.55,1.11,0.09,2
54.91,-13.71,24.82,13.12,-84.05,-20.63,0.25,0.29,-1.05,2
53.38,-27.16,11.77,-109.99,4.03,-27.16,-0.56,0.91,0.35,1
50.28,-11.39,22.51,6.29,14.34,-34.67,0.83,0.28,-0.2,0
51.84,-16.91,18.93,-34.91,3.11,-55.97,0.99,0.18,-0.11,0
42.05,4.65,-47.22,-0.67,0.0,0.43,-0.04,-0.03,1.0,3
51.03,-10.11,22.47,-31.92,-1.71,-1.95,0.78,0.41,-0.15,0
41.75,4.6,-45.78,-0.85,0.06,0.49,-0.04,-0.03,1.0,3
50.38,-20.94,20.84,59.45,-36.99,60.0,0.9,-0.22,-0.54,0
10.45,-17.08,28.77,-9.89,-96.56,-14.47,-0.82,0.31,-0.45,2
54.11,-18.3,22.8,-20.75,-50.48,-24.66,0.19,0.48,-0.92,2
37.5,-37.17,-3.75,-15.26,5.62,-125.12,-0.02,0.82,0.21,2
49.95,-18.32,20.98,-46.2,30.76,-97.9,1.24,0.02,-0.52,0
51.07,-18.48,20.69,-80.93,22.52,-47.91,1.16,0.05,-0.36,0
50.98,-28.25,15.44,-96.62,5.55,-66.28,1.23,-0.19,-0.63,0
50.4,-25.29,16.41,29.6,-18.07,40.16,0.8,0.02,-0.34,0
46.83,-34.24,7.23,44.25,-34.55,176.88,1.13,0.29,-0.7,1
50.06,-10.8,24.72,10.68,0.24,7.26,1.02,0.11,-0.55,0
62.32,-19.67,1.76,-1.28,-12.88,44.92,0.62,1.07,0.15,2
32.47,-37.7,-0.78,31.13,3.85,30.15,-0.4,0.49,0.28,2
2.91,-15.25,22.18,10.8,-42.18,-6.16,-0.73,0.19,0.07,2
52.27,-22.94,15.43,-22.95,42.72,-81.24,1.13,0.18,-0.11,0
50.04,-10.44,21.78,-32.1,14.53,-57.86,0.94,0.35,-0.21,0
42.29,5.36,-46.36,-0.79,0.0,0.55,-0.04,-0.03,1.0,3
49.95,-19.59,20.2,57.13,-13.61,58.41,1.0,0.09,-0.37,0
42.54,4.94,-46.95,-0.67,0.06,0.37,-0.04,-0.03,1.0,3
25.6,-37.12,-8.22,8.3,-0.43,-4.82,-0.58,0.45,0.37,2
42.0,4.11,-46.26,-0.79,0.0,0.61,-0.04,-0.03,1.0,3
52.08,-18.81,18.35,-87.59,1.04,-21.18,1.16,0.11,-0.34,0
31.99,-36.41,4.32,272.71,-22.4,205.02,0.17,-1.14,-0.54,1
49.51,-26.43,13.64,-30.94,1.89,-11.11,0.9,0.02,-0.38,0
51.62,-29.74,12.5,-12.33,4.03,-28.2,0.96,-0.29,-0.45,0
49.29,-14.78,28.33,-14.28,-105.96,-28.08,0.25,0.4,-1.05,2
42.36,4.27,-46.98,-0.79,-0.06,0.55,-0.04,-0.03,1.0,3
57.95,-27.98,1.68,11.17,-9.03,86.79,0.58,1.04,0.08,2
28.7,-37.83,-6.12,5.37,-0.73,43.09,-0.46,0.71,0.31,2
26.73,-37.33,-10.12,-11.35,-2.5,-50.6,-0.5,0.47,0.34,2
51.62,-31.56,1.54,-2.93,-1.46,-84.47,0.21,0.93,0.09,2
47.39,-34.51,-0.5,1.83,-3.17,92.47,0.12,1.05,0.11,2
48.0,-34.47,8.19,-23.8,-0.67,-18.92,0.86,-0.22,-0.44,0
50.04,-15.03,22.56,184.14,-15.87,61.71,1.45,0.4,-0.62,0
48.21,-9.14,22.4,-10.99,24.6,-28.81,0.86,0.12,-0.24,0
42.3,4.2,-47.96,-0.73,-0.06,0.43,-0.04,-0.03,1.0,3
36.41,-16.56,32.47,10.8,109.92,19.78,-0.18,0.32,-0.93,2
42.29,4.48,-47.57,-0.55,0.0,0.49,-0.04,-0.03,1.0,3
48.54,-12.74,23.28,15.75,1.83,11.11,1.32,0.25,-0.5,0
52.33,-28.31,11.78,43.52,34.55,53.83,0.56,1.33,0.31,1
36.47,-33.22,-1.82,-174.62,46.33,-136.84,2.15,2.12,0.91,1
60.79,-12.07,15.12,-11.35,57.62,22.28,0.51,0.3,-1.0,2
50.74,-15.25,20.86,-67.87,8.42,-1.04,0.91,0.25,-0.22,0
51.44,-28.94,12.96,-29.72,-1.71,-21.24,0.91,0.03,-0.51,0
50.76,-32.36,9.22,-36.07,-2.87,164.43,3.48,4.0,0.54,1
42.54,4.36,-46.48,-0.79,0.06,0.24,-0.04,-0.03,1.0,3
30.36,-37.38,-1.12,-0.12,-87.89,181.7,0.14,-1.44,-0.59,1
51.83,-19.7,18.27,-65.31,36.93,-65.25,1.13,0.23,-0.18,0
50.89,-18.76,18.3,105.65,-32.9,11.29,1.03,0.05,-0.38,0
51.12,-17.24,19.43,-4.76,13.79,-43.7,0.89,0.25,-0.17,0
49.35,-13.79,23.07,-4.76,8.36,-44.13,0.78,0.26,-0.24,0
16.22,-17.54,30.79,-2.56,101.56,26.0,-0.62,0.31,-0.49,2
19.53,-36.8,-4.71,7.75,-12.45,-55.3,-0.68,0.58,0.28,2
47.96,-5.74,25.29,12.45,8.42,-14.16,0.88,0.3,-0.27,0
52.29,-24.72,16.81,6.9,-2.56,34.48,0.23,0.78,0.17,1
52.54,-26.94,14.42,-7.14,-62.01,61.34,0.56,-0.48,-0.4,0
50.28,-13.22,20.65,-27.65,-3.05,-0.73,0.93,0.23,-0.17,0
58.91,-16.96,17.54,7.63,45.47,30.76,0.45,0.62,-0.88,2
35.83,-34.47,-2.33,-193.85,36.01,-133.79,1.64,3.92,-0.07,1
41.75,4.75,-46.64,-0.73,0.0,0.31,-0.04,-0.03,1.0,3
42.88,4.94,-48.44,-0.73,-0.18,0.37,-0.04,-0.03,1.0,3
51.53,-28.38,11.98,35.71,-13.31,65.49,0.87,2.09,0.05,1
50.06,-21.01,19.48,-2.14,-17.7,14.16,0.83,0.15,-0.43,0
50.61,-25.0,16.05,-40.53,19.35,-30.88,0.76,0.16,-0.3,0
53.6,-31.45,3.96,40.34,29.66,39.31,1.03,1.67,0.52,1
44.37,-34.24,12.01,-24.17,59.27,130.68,1.22,-0.23,-0.51,1
49.18,-31.01,11.98,-61.46,24.54,3.23,-0.52,0.38,0.14,1
49.17,-16.43,21.24,73.18,2.08,24.72,1.1,0.14,-0.37,0
50.28,-20.58,25.61,-31.13,-94.06,-41.14,0.19,0.53,-0.95,2
53.33,-18.52,17.33,-35.83,3.91,-21.24,0.81,0.15,-0.12,0
42.27,4.44,-47.83,-0.61,0.06,0.43,-0.04,-0.03,1.0,3
52.33,-18.2,25.17,-3.36,70.56,19.41,0.2,0.44,-0.96,2
45.56,-36.22,0.46,3.48,19.29,144.59,0.22,0.99,0.08,2
53.39,-21.19,18.31,-82.89,34.55,-13.67,0.71,0.02,-0.52,0
49.08,-32.62,9.11,-47.36,-83.68,194.15,2.1,0.18,-0.4,1
9.89,-15.19,28.74,0.55,54.26,13.73,-0.79,0.28,-0.39,2
49.62,-23.4,16.37,-20.08,-3.36,-9.64,0.96,-0.08,-0.37,0
24.22,-37.79,-5.35,33.57,13.73,64.88,-0.48,0.42,0.25,2
49.55,-31.29,12.23,80.32,29.72,122.86,3.42,1.32,-0.23,1
47.44,-9.53,24.22,37.54,-17.64,-1.89,1.23,0.25,-0.69,0
28.0,-22.11,31.02,5.68,52.92,19.04,-0.52,0.45,-0.76,2
32.06,-37.93,-2.39,-10.93,-1.59,-106.26,-0.27,0.86,0.22,2
38.02,-22.0,31.3,-16.3,-68.12,-16.42,-0.2,0.52,-0.87,2
42.14,5.09,-47.34,-0.73,-0.06,0.55,-0.04,-0.03,1.0,3
32.03,-17.87,33.86,-6.04,-84.78,-21.73,-0.33,0.38,-0.91,2
42.7,4.59,-48.24,-0.85,0.0,0.43,-0.04,-0.03,1.0,3
49.01,-14.59,22.25,6.71,-4.15,35.16,0.94,0.46,-0.41,0
42.5,5.07,-47.46,-0.79,0.0,0.43,-0.04,-0.03,1.0,3
32.71,-36.46,1.27,52.31,153.75,-97.23,1.17,0.37,0.32,1
49.02,-21.87,19.64,16.48,-9.58,11.29,0.74,-0.06,-0.41,0
58.04,-26.39,3.06,-8.3,3.05,95.03,0.43,1.04,0.02,2
42.54,4.55,-48.24,-0.73,-0.12,0.49,-0.04,-0.03,1.0,3
53.34,-19.65,16.43,-21.79,-1.16,2.56,1.0,0.12,-0.31,0
52.15,-28.67,12.99,22.03,10.68,54.38,0.94,1.47,0.2,1
54.52,-24.57,14.99,-50.96,20.69,10.5,-0.55,1.51,0.22,1
29.08,-38.07,1.27,-8.06,1.71,5.68,1.01,-1.03,-0.46,1
42.05,4.61,-46.88,-0.61,0.06,0.31,-0.04,-0.03,1.0,3
51.17,-13.32,19.95,-7.08,-2.14,-14.53,0.8,0.28,-0.22,0
49.44,-23.01,19.24,38.45,-19.23,42.66,0.9,-0.07,-0.4,0
51.38,-23.18,17.58,-10.99,15.63,-30.52,1.12,-0.02,-0.35,0
45.39,-35.0,-3.19,-9.52,0.79,-102.54,0.14,1.08,0.15,2
50.4,-26.44,15.21,34.67,-17.76,30.58,0.71,-0.13,-0.33,0
52.78,-15.16,18.7,-0.92,9.89,-19.47,0.78,0.25,-0.13,0
49.05,-14.09,21.68,30.27,7.45,40.16,0.96,0.31,-0.36,0
63.5,-17.09,0.18,-12.7,-10.68,41.56,0.64,0.94,0.1,2
62.17,-19.87,4.08,-76.66,7.93,34.12,0.59,0.8,-0.11,2
41.87,5.2,-46.35,-0.43,0.06,0.43,-0.04,-0.03,1.0,3
31.79,-37.52,-2.75,29.91,-45.41,88.2,0.27,-0.91,-0.56,1
28.78,-37.51,-1.45,123.05,0.37,32.71,0.72,-0.72,-0.31,1
57.4,-27.67,-1.48,7.45,8.97,99.98,0.45,0.93,0.12,2
51.2,-12.73,22.34,-36.74,17.21,-14.28,0.89,0.11,-0.25,0
24.29,-15.84,33.06,-1.89,-65.49,-22.09,-0.43,0.35,-0.74,2
32.9,-35.72,1.48,-60.73,60.49,-194.76,3.96,4.0,-0.16,1
41.54,4.57,-47.31,-0.67,0.0,0.55,-0.04,-0.03,1.0,3
34.99,-36.87,0.31,-29.85,-88.07,185.79,0.0,-0.68,-0.49,1
42.55,4.86,-46.53,-0.55,-0.06,0.37,-0.04,-0.03,1.0,3
49.65,-13.33,21.77,26.86,6.04,0.55,1.16,0.19,-0.42,0
42.35,5.11,-46.86,-0.73,0.06,0.37,-0.04,-0.03,1.0,3
41.93,4.47,-47.91,-0.73,0.0,0.61,-0.04,-0.03,1.0,3
42.47,4.46,-46.13,-0.73,-0.12,0.55,-0.04,-0.03,1.0,3
60.8,-22.47,1.83,-16.72,6.84,-74.83,0.76,0.97,0.17,2
48.97,-31.36,12.5,18.92,-32.9,66.96,1.07,1.63,0.45,1
48.55,-13.95,23.67,13.61,-39.67,100.16,1.03,0.08,-0.61,0
11.33,-20.25,27.49,-16.05,-13.92,10.62,-0.93,0.4,-0.46,2
61.51,-11.22,12.45,6.9,-23.99,-8.3,0.63,0.27,-0.85,2
32.57,-36.98,2.33,23.07,15.44,156.31,0.3,-0.83,-0.51,1
50.24,-10.9,23.21,70.25,-13.18,30.21,1.14,0.27,-0.35,0
51.07,-15.87,20.96,-57.31,42.97,-68.36,1.16,0.1,-0.35,0
23.25,-38.22,-3.38,10.8,5.31,21.73,-0.58,0.52,0.33,2
15.31,-36.07,-2.71,20.63,16.24,30.15,-0.78,0.53,0.24,2
50.32,-15.81,21.12,-10.74,10.8,-39.49,0.88,0.24,-0.19,0
41.89,4.69,-46.77,-0.67,-0.12,0.43,-0.04,-0.03,1.0,3
46.81,-34.69,6.8,-257.63,47.67,-259.95,-0.56,0.39,0.16,1
26.73,-36.74,1.57,140.75,33.69,35.16,0.25,-0.73,-0.6,1
50.43,-15.16,20.37,-4.58,9.46,-10.01,0.75,0.27,-0.17,0
42.74,4.54,-46.96,-0.85,0.0,0.43,-0.04,-0.03,1.0,3
42.6,5.24,-46.53,-0.73,0.0,0.49,-0.04,-0.03,1.0,3
39.28,-37.33,-0.99,-168.27,72.63,-97.96,3.46,2.43,0.79,1
34.92,-35.28,2.0,20.08,26.98,-61.77,1.06,-0.45,-0.29,1
42.22,5.07,-46.7,-0.79,0.0,0.43,-0.04,-0.03,1.0,3
51.26,-24.28,16.56,-91.25,24.23,-46.45,1.05,0.13,-0.46,0
42.35,4.79,-46.79,-0.79,0.0,0.49,-0.04,-0.03,1.0,3
34.57,-38.15,-4.06,29.24,7.69,83.25,-0.21,0.79,0.25,2
50.89,-20.4,20.48,-53.65,14.83,-47.67,0.99,0.13,-0.31,0
42.68,4.65,-47.55,-0.73,-0.06,0.43,-0.04,-0.03,1.0,3
50.46,-29.82,12.74,-59.02,-14.47,138.12,2.1,3.42,0.38,1
50.72,-17.44,20.14,-21.55,43.09,-46.88,1.18,-0.05,-0.38,0
50.67,-24.96,16.98,-49.62,-0.49,-25.63,0.96,-0.22,-0.56,0
62.76,-13.45,8.74,-1.1,-15.38,-0.55,0.64,0.38,-0.79,2
42.58,4.87,-46.67,-0.92,0.06,0.43,-0.04,-0.03,1.0,3
48.6,-25.81,16.82,4.82,-4.94,-13.24,0.88,-0.04,-0.43,0
52.11,-28.81,11.0,-49.62,21.73,-38.51,0.94,-0.12,-0.34,0
32.34,-37.52,2.5,1.65,15.87,10.68,1.0,-0.97,-0.25,1
27.76,-18.03,34.29,-17.21,-82.76,-23.07,-0.49,0.37,-0.82,2
27.82,-37.46,4.54,48.65,-29.66,158.51,0.03,-1.02,-0.38,1
36.73,-37.81,0.67,-13.98,55.66,-160.34,3.97,4.0,0.11,1
50.26,-19.07,20.2,-28.87,4.58,-31.49,0.87,0.1,-0.29,0
58.45,-26.17,0.96,-11.17,13.43,-92.9,0.7,1.0,0.17,2
54.16,-13.1,23.58,17.64,102.42,34.91,0.32,0.41,-1.05,2
46.64,-15.16,30.66,-3.42,-118.16,-19.96,0.16,0.38,-1.08,2
50.81,-21.13,20.17,42.6,-45.53,69.34,1.02,-0.21,-0.46,0
50.5,-16.05,20.62,-35.95,11.17,-22.58,0.91,0.17,-0.24,0
48.85,-10.11,23.46,-7.14,-2.26,-43.76,1.0,0.33,-0.15,0
13.28,-18.51,28.8,9.46,66.41,18.13,-0.73,0.29,-0.41,2
42.42,4.5,-46.46,-0.67,0.0,0.49,-0.04,-0.03,1.0,3
51.49,-27.64,12.46,49.68,34.97,-28.38,-0.62,0.32,0.49,1
41.85,4.97,-47.69,-0.73,-0.06,0.24,-0.04,-0.03,1.0,3
50.24,-29.99,11.45,63.54,-11.05,53.1,1.3,1.59,0.76,1
38.88,-38.44,5.18,153.44,-15.5,198.43,0.48,0.12,-0.55,1
49.68,-19.25,21.81,41.56,-10.5,14.16,0.96,0.12,-0.33,0
62.72,-16.75,4.83,-5.86,-6.35,-4.03,0.7,1.01,0.02,2
42.29,5.04,-46.24,-0.79,0.0,0.43,-0.04,-0.04,1.0,3
35.99,-37.73,-2.58,-2.14,-1.22,-79.04,-0.28,0.81,0.21,2
59.48,-9.99,17.05,-15.26,49.56,20.2,0.41,0.4,-1.1,2
51.84,-11.12,26.32,-10.8,89.42,24.35,0.24,0.27,-1.06,2
42.44,5.0,-48.24,-0.79,0.06,0.31,-0.04,-0.03,1.0,3
42.52,4.97,-46.97,-0.61,0.0,0.37,-0.04,-0.03,1.0,3
54.32,-13.64,25.28,3.85,89.54,19.35,0.25,0.3,-1.07,2
31.96,-16.75,34.47,-0.43,-125.49,-29.97,-0.23,0.41,-0.98,2
52.26,-14.28,19.21,6.04,14.04,8.54,0.77,0.4,-0.2,0
52.64,-28.81,11.29,27.04,2.44,53.96,-0.41,0.48,0.19,1
49.95,-30.32,12.71,8.48,-28.63,24.11,2.06,2.5,-0.01,1
51.22,-26.34,17.1,10.01,-39.18,69.15,0.68,-0.23,-0.43,0
42.54,4.64,-46.57,-0.79,15.56,0.43,-0.04,-0.03,1.0,3
41.7,4.7,-47.13,-0.67,0.06,0.37,-0.04,-0.03,1.0,3
63.27,-17.63,0.94,-8.79,0.92,-45.84,0.76,0.8,0.11,2
61.12,-12.34,13.06,4.82,23.99,3.54,0.61,0.32,-0.81,2
56.4,-27.72,6.15,-7.63,5.0,-70.19,0.53,0.89,0.09,2
50.05,-14.73,23.28,58.53,-15.69,73.73,1.06,0.03,-0.5,0
54.09,-30.22,7.87,-32.78,-1.34,-37.41,0.94,-0.24,-0.68,0
42.48,5.36,-47.12,-0.49,-0.06,0.49,-0.04,-0.03,1.0,3
49.9,-32.06,8.76,-164.67,17.76,-105.16,-0.4,0.85,0.23,1
51.46,-9.42,22.39,42.36,-5.86,-10.86,1.01,0.22,-0.46,0
42.36,5.27,-47.79,-0.61,-0.06,0.43,-0.03,-0.03,1.0,3
49.6,-10.62,21.46,-3.42,3.72,4.7,0.99,0.38,-0.22,0
42.41,4.52,-47.05,-0.67,-0.12,0.37,-0.04,-0.03,1.0,3
46.73,-6.95,25.99,-1.4,-1.89,4.88,0.96,0.46,-0.33,0
27.56,-37.72,-1.39,5.37,4.82,18.62,-0.55,0.69,0.26,2
12.19,-15.33,28.87,8.3,69.34,11.05,-0.68,0.24,-0.36,2
42.54,5.09,-47.09,-0.79,0.06,0.43,-0.04,-0.03,1.0,3
33.28,-38.1,-2.28,35.89,43.21,-26.92,0.72,-1.2,-0.44,1
51.68,-24.91,17.31,-83.19,50.23,-58.59,0.97,0.11,-0.33,0
41.63,5.13,-47.29,-0.67,0.12,0.49,-0.04,-0.03,1.0,3
58.25,-27.21,-0.39,12.82,0.49,74.4,0.5,0.9,0.12,2
60.17,-21.25,9.58,145.81,12.63,4.52,0.53,0.54,-0.35,2
48.69,-10.06,24.94,25.33,-51.94,89.23,1.07,0.06,-0.58,0
31.05,-34.79,1.93,-80.93,-50.17,138.73,0.38,-1.23,-0.82,1
57.59,-13.1,20.53,-22.89,45.41,24.29,0.32,0.5,-1.08,2
49.16,-27.34,15.71,28.87,1.53,14.04,0.74,0.09,-0.25,0
41.78,4.76,-46.86,-0.73,0.0,0.43,-0.04,-0.03,1.0,3
51.71,-33.03,0.01,3.23,21.67,-99.3,0.39,1.05,0.14,2
49.22,-30.46,13.0,-7.14,22.64,-26.73,-0.37,0.92,0.13,1
54.87,-14.75,23.34,-9.95,-48.03,-15.75,0.33,0.34,-0.91,2
33.31,-37.98,-0.04,14.65,53.34,-173.16,3.38,4.0,-0.65,1
49.23,-33.47,7.25,-48.46,39.12,-142.64,-0.47,0.94,0.36,1
42.13,4.79,-46.48,-0.79,0.0,0.31,-0.04,-0.03,1.0,3
51.05,-19.49,19.06,-18.49,17.4,-54.99,1.19,0.05,-0.26,0
50.45,-21.15,19.12,18.31,-27.77,67.2,1.03,-0.03,-0.43,0
27.12,-35.42,5.4,115.72,-15.32,79.35,0.25,-0.73,-1.0,1
59.33,-21.22,14.82,36.99,-41.08,-40.1,0.5,0.75,-0.61,2
32.62,-37.3,-1.1,-20.2,1.46,-25.15,-0.37,0.77,0.24,2
32.6,-37.67,-0.31,-56.46,93.93,-187.44,2.66,3.98,0.54,1
49.83,-24.71,16.44,-56.21,-3.42,-17.52,1.02,0.04,-0.52,0
45.25,-34.53,11.63,-19.65,32.1,171.2,1.17,0.04,-0.43,1
50.02,-18.58,21.79,83.56,-39.79,19.53,1.19,0.01,-0.47,0
50.79,-26.27,17.27,-73.3,46.88,-64.33,0.8,0.02,-0.41,0
49.11,-17.32,21.18,31.43,10.68,23.19,0.9,0.03,-0.37,0
51.93,-28.2,12.39,19.71,-70.68,60.85,0.61,-0.3,-0.3,0
42.35,5.02,-45.84,-0.67,0.0,0.31,-0.04,-0.03,1.0,3
43.1,-36.58,-3.61,-3.72,2.32,74.83,-0.09,0.9,0.23,2
52.67,-29.7,8.89,110.11,-18.98,-90.21,-0.54,0.6,0.45,1
52.03,-27.38,13.6,-5.19,-22.83,32.84,-0.54,0.49,0.28,1
25.38,-34.14,3.92,192.26,67.75,-21.06,0.85,-0.63,-0.59,1
29.66,-38.29,-5.66,-14.34,-16.3,-85.51,-0.36,0.58,0.29,2
53.48,-28.64,10.23,76.54,50.72,0.43,-0.82,0.34,-0.14,1
8.68,-29.53,15.17,-1.22,2.14,7.69,-0.73,0.38,0.14,2
51.11,-14.76,22.4,-51.09,15.08,-57.19,0.89,0.22,-0.17,0
47.31,-34.39,4.85,15.01,-58.9,263.43,2.03,0.16,-0.36,1
50.32,-14.1,21.36,-28.38,54.26,-93.69,1.17,0.29,-0.1,0
60.03,-18.4,12.98,-12.57,9.46,13.55,0.45,0.5,-0.86,2
50.51,-26.49,15.54,6.9,-4.64,-1.34,0.87,0.01,-0.48,0
27.91,-26.16,29.39,-24.66,-75.13,-37.23,-0.39,0.51,-0.62,2
50.12,-25.52,17.4,-96.68,0.12,-29.05,1.11,-0.21,-0.59,0
29.58,-37.0,-0.39,-54.02,20.45,-190.43,3.99,4.0,-0.2,1
63.17,-17.47,1.06,-3.48,-0.92,18.07,0.65,0.85,0.14,2
50.56,-26.66,12.84,5.98,-19.29,27.16,0.75,-0.15,-0.4,0
55.26,-14.21,24.46,3.72,-62.19,-24.9,0.31,0.44,-0.99,2
27.06,-36.47,0.42,76.42,84.47,-55.3,1.01,-0.64,-0.27,1
52.93,-20.51,18.36,-18.19,61.22,-59.14,1.27,-0.1,-0.33,0
50.71,-21.5,18.73,-50.6,8.42,-24.35,0.99,0.01,-0.42,0
49.4,-11.79,23.44,-34.42,77.03,-108.09,0.97,0.22,-0.2,0
42.36,4.74,-47.18,-0.85,-0.06,0.55,-0.04,-0.03,1.0,3
48.21,-10.41,24.87,-4.03,-0.24,-7.02,1.25,-0.02,-0.41,0
10.72,-28.82,18.62,-18.19,-56.58,-9.34,-0.81,0.47,-0.12,2
41.97,4.88,-47.46,-0.73,0.0,0.31,-0.04,-0.03,1.0,3
42.9,4.68,-47.18,-0.73,0.06,0.43,-0.04,-0.03,1.0,3
42.74,4.82,-46.85,-0.67,0.12,0.49,-0.04,-0.03,1.0,3
19.86,-16.06,32.73,-33.57,-85.94,-10.38,-0.66,0.34,-0.75,2
42.02,5.63,-46.92,-0.79,0.06,0.49,-0.04,-0.03,1.0,3
52.17,-25.77,12.72,-53.1,10.56,-22.71,1.12,-0.13,-0.52,0
61.39,-15.59,9.91,-4.03,7.26,8.18,0.49,0.45,-0.86,2
41.99,4.86,-46.64,-0.49,-0.06,0.43,-0.04,-0.03,1.0,3
40.3,-36.96,-3.42,-6.41,4.09,-88.07,-0.03,0.84,0.24,2
47.86,-3.04,23.17,5.19,-7.87,-2.93,0.71,0.46,-0.31,0
39.25,-24.11,27.75,-17.58,-77.51,-46.63,-0.11,0.58,-0.79,2
54.5,-31.18,5.13,24.66,-17.88,30.03,0.61,-0.12,-0.42,0
52.06,-21.19,23.73,22.03,87.1,46.63,0.2,0.69,-0.92,2
52.51,-31.85,4.33,-12.94,-28.63,34.18,0.64,-0.23,-0.48,0
57.68,-27.47,-0.43,-20.75,4.64,-76.17,0.48,0.92,0.17,2
50.71,-23.23,16.53,-50.42,3.3,-33.75,0.89,0.14,-0.27,0
45.56,-36.1,6.87,-285.03,3.42,-216.92,0.62,0.86,0.66,1
60.45,-11.32,15.37,-13.61,81.97,35.89,0.57,0.39,-1.06,2
31.1,-33.5,4.54,-81.42,59.2,128.97,0.3,-0.46,-0.41,1
48.52,-15.3,29.37,-5.62,-75.01,-19.59,0.16,0.45,-0.99,2
42.0,4.46,-48.44,-0.79,0.0,0.37,-0.04,-0.03,1.0,3
17.33,-16.44,32.95,-8.24,-88.07,-14.28,-0.7,0.28,-0.74,2
50.95,-15.27,21.26,-23.93,36.13,-75.13,0.88,0.13,-0.17,0
42.07,5.11,-46.23,-0.73,-0.12,0.49,-0.04,-0.03,1.0,3
49.0,-10.52,22.88,-15.87,10.07,-6.53,0.96,0.53,-0.26,0
60.47,-23.22,1.68,11.72,7.32,-64.39,0.69,1.0,-0.01,2
60.83,-23.58,1.72,-5.19,-14.77,106.14,0.71,1.13,0.1,2
32.57,-36.19,-1.7,1.4,44.13,-151.67,3.86,4.0,-0.43,1
38.6,-37.37,3.41,-16.85,-17.03,-116.7,3.58,4.0,-0.41,1
50.28,-23.55,17.35,63.72,-23.44,17.09,1.03,0.09,-0.23,0
49.35,-19.15,21.84,101.93,-21.79,31.68,1.18,-0.06,-0.67,0
29.21,-37.45,-1.71,-86.06,65.25,-100.22,1.72,-0.39,-0.5,1
51.55,-13.39,27.31,-3.97,112.0,37.35,0.28,0.41,-1.28,2
50.38,-14.84,23.22,-6.1,11.78,23.62,1.18,0.32,-0.42,0
41.67,4.55,-47.34,-0.61,-0.12,0.37,-0.04,-0.03,1.0,3
50.39,-13.5,21.78,104.68,-20.14,58.96,1.42,0.37,-0.62,0
20.87,-28.06,26.32,-29.05,-79.96,-23.8,-0.56,0.45,-0.4,2
41.5,-36.44,7.35,37.72,13.12,176.15,0.94,0.01,-0.38,1
49.3,-12.07,23.05,-4.27,-1.59,2.26,0.78,0.29,-0.29,0
59.22,-24.32,6.32,26.25,11.96,68.73,0.54,0.95,-0.16,2
50.6,-17.25,21.34,-44.68,19.65,-49.87,1.06,0.17,-0.27,0
50.9,-29.63,12.59,9.89,-1.95,-0.98,0.69,0.06,-0.35,0
50.65,-29.09,13.24,-138.79,9.28,-160.34,-0.3,0.92,0.31,1
64.49,-13.24,2.67,-1.4,-9.4,21.67,0.79,0.79,0.16,2
52.42,-12.82,19.02,-15.08,13.12,-26.25,0.87,0.2,-0.2,0
58.73,-15.71,17.16,16.42,-57.56,-22.64,0.55,0.41,-0.85,2
63.06,-18.64,2.28,4.82,8.48,-10.5,0.66,0.85,0.06,2
31.67,-37.51,-2.06,-110.78,29.05,-165.83,4.0,4.0,0.31,1
49.15,-32.9,6.81,9.4,-21.61,59.75,0.74,1.01,0.47,1
51.83,-21.78,17.92,-42.72,39.61,-44.8,1.2,-0.17,-0.49,0
42.15,4.38,-46.9,-0.79,0.06,0.37,-0.04,-0.03,1.0,3
48.47,-30.76,12.94,152.71,60.0,-66.83,-0.43,0.68,0.16,1
42.55,4.61,-47.96,-0.73,-0.12,0.43,-0.04,-0.03,1.0,3
50.46,-28.33,12.76,14.71,-44.92,59.27,0.56,-0.2,-0.32,0
34.63,-37.54,5.37,44.13,34.48,187.56,0.21,-0.9,-0.33,1
53.77,-30.65,5.03,-18.25,-55.48,15.56,-0.6,0.29,-0.09,1
42.2,5.57,-46.7,-0.85,0.06,0.49,-0.04,-0.03,1.0,3
42.7,4.59,-47.84,-0.98,-0.06,0.43,-0.04,-0.03,1.0,3
3.93,-14.83,22.92,10.01,11.72,2.69,-0.8,0.21,0.09,2
50.81,-28.55,13.78,-28.32,-36.01,16.24,-0.31,0.49,0.22,1
50.66,-24.05,17.82,37.6,-30.15,37.84,0.71,-0.24,-0.41,0
48.91,-33.74,7.37,-190.73,-1.22,-321.59,-0.84,0.51,0.41,1
42.41,4.98,-47.38,-0.67,0.06,0.49,-0.04,-0.03,1.0,3
41.97,4.24,-47.61,-0.85,-0.06,0.61,-0.04,-0.03,1.0,3
42.24,4.35,-46.8,-0.73,0.18,0.55,-0.04,-0.03,1.0,3
14.0,-18.68,29.91,7.45,91.98,22.22,-0.61,0.36,-0.45,2
48.97,-33.52,8.53,-15.32,91.49,-76.42,-0.51,0.87,0.33,1
45.76,-34.79,10.51,16.11,40.22,117.43,2.08,0.82,-0.26,1
50.0,-30.63,11.49,-4.46,9.77,-22.83,0.88,-0.13,-0.41,0
48.06,-9.33,24.89,-3.78,-13.37,0.49,0.76,0.26,-0.73,0
22.84,-36.72,-3.16,88.99,36.5,30.88,0.92,-0.5,-0.19,1
43.84,-14.39,31.85,-14.04,-72.39,-11.54,-0.1,0.37,-1.14,2
52.1,-22.09,17.86,23.07,-32.29,44.8,0.73,-0.18,-0.31,0
28.12,-35.86,5.43,105.47,70.92,66.65,0.58,-0.96,-0.3,1
31.47,-36.16,-0.73,-40.59,25.7,-65.25,1.1,-0.67,-0.63,1
50.63,-16.15,22.52,-48.58,9.28,-33.45,1.23,-0.11,-0.32,0
38.67,-37.29,-0.18,21.79,16.66,115.84,-0.02,0.82,0.14,2
6.67,-16.66,26.32,10.86,69.64,10.68,-0.82,0.35,-0.35,2
50.92,-23.45,15.99,-8.0,-11.23,10.74,0.71,0.0,-0.29,0
49.11,-11.91,24.23,18.01,-2.08,17.94,1.24,0.14,-0.5,0
19.96,-15.52,33.56,-5.62,-108.64,-23.19,-0.52,0.36,-0.8,2
30.68,-37.59,-3.06,-3.66,-1.22,-27.53,-0.46,0.79,0.25,2
48.38,-22.02,19.35,19.47,-8.73,29.42,0.79,0.02,-0.43,0
42.58,4.77,-47.07,-0.79,-0.06,0.37,-0.04,-0.03,1.0,3
42.74,4.77,-46.29,-0.67,-0.24,0.37,-0.04,-0.03,1.0,3
62.52,-16.41,6.81,-1.1,-0.06,-11.9,0.8,0.93,0.04,2
42.14,5.04,-46.83,-0.85,-0.06,0.49,-0.04,-0.03,1.0,3
31.79,-37.84,-4.37,20.08,3.78,55.18,-0.36,0.71,0.27,2
51.21,-21.75,19.09,-30.82,19.59,-64.21,1.21,-0.05,-0.39,0
48.3,-14.45,22.17,23.99,-14.28,64.15,0.92,0.08,-0.5,0
42.2,4.85,-46.8,-0.73,-0.06,0.37,-0.04,-0.03,1.0,3
49.63,-16.48,21.41,107.24,-32.04,45.17,1.3,0.31,-0.48,0
35.03,-37.49,-4.65,-11.11,1.04,-68.85,-0.28,0.73,0.26,2
19.38,-22.19,29.96,10.07,66.59,10.68,-0.65,0.41,-0.5,2
51.9,-23.05,18.4,7.02,-29.97,42.3,0.6,-0.12,-0.4,0
50.22,-14.27,22.91,41.14,-13.67,27.77,1.17,0.41,-0.48,0
63.53,-16.49,0.72,-15.69,16.05,-88.26,0.84,0.58,0.15,2
52.58,-24.94,15.05,-37.11,37.11,-84.29,1.25,-0.02,-0.44,0
51.53,-31.77,8.45,-130.62,-50.35,-173.22,-0.75,0.51,-0.01,1
49.94,-9.11,22.71,-51.09,12.02,-57.98,0.8,0.21,-0.18,0
50.42,-30.03,11.16,43.52,27.71,74.04,2.21,2.52,0.3,1
33.56,-36.83,-2.7,-10.8,24.54,-86.67,3.84,2.79,-0.25,1
41.05,-36.35,9.72,151.61,4.21,-55.42,0.74,-0.23,-0.38,1
21.22,-37.3,-8.56,-0.12,11.66,34.06,-0.69,0.35,0.35,2
52.01,-24.78,16.28,10.56,-11.47,8.97,0.67,-0.13,-0.33,0
51.75,-28.11,14.04,-9.95,-6.84,-11.05,0.84,-0.01,-0.48,0
42.3,4.57,-47.16,-0.92,0.0,0.43,-0.04,-0.03,1.0,3
62.88,-14.59,9.12,-7.63,7.81,6.84,0.6,0.42,-0.81,2
51.21,-23.52,16.88,-102.29,20.57,-53.89,0.88,0.04,-0.51,0
42.41,4.54,-47.62,-0.61,0.12,0.43,-0.04,-0.03,1.0,3
42.46,4.68,-46.98,-0.67,0.06,0.43,-0.04,-0.03,1.0,3
7.42,-15.95,27.14,15.44,61.22,9.28,-0.73,0.25,-0.22,2
39.36,-36.33,2.76,-20.94,3.23,-57.13,3.69,4.0,-0.73,1
42.5,5.09,-47.74,-0.67,0.12,0.37,-0.04,-0.03,1.0,3
50.39,-24.62,16.5,20.14,-21.79,32.29,0.76,0.03,-0.39,0
42.77,4.59,-47.8,-0.73,-0.12,0.37,-0.04,-0.03,1.0,3
50.88,-29.83,13.54,27.04,-77.88,37.9,0.8,1.45,0.01,1
49.52,-15.53,20.83,52.67,-10.07,45.53,1.01,0.13,-0.45,0
48.23,-20.03,27.01,-23.68,-91.74,-30.4,0.11,0.49,-0.99,2
50.11,-20.67,18.95,-41.63,28.38,-74.46,1.14,0.18,-0.29,0
49.8,-28.08,15.97,59.94,-38.76,78.92,0.86,-0.1,-0.41,0
48.25,-10.68,23.55,6.35,-1.1,13.12,1.31,0.3,-0.42,0
16.63,-36.24,-7.26,0.79,-2.2,-10.56,-0.7,0.18,0.31,2
50.23,-20.45,17.44,46.57,-17.21,39.25,1.01,0.05,-0.38,0
53.7,-27.86,11.88,-87.59,28.56,2.99,-0.47,0.27,0.3,1
50.88,-31.3,9.72,-46.75,-7.39,-45.72,-0.66,0.66,0.2,1
41.71,5.2,-47.23,-0.73,0.06,0.43,-0.04,-0.03,1.0,3
50.21,-19.53,20.8,-46.26,45.1,-85.57,1.23,0.03,-0.46,0
28.0,-37.57,-1.03,100.95,35.1,-7.75,0.86,-0.88,-0.16,1
34.27,-38.16,0.38,-46.26,27.34,-71.29,1.0,-0.72,-0.38,1
49.19,-6.4,24.61,23.38,17.52,2.87,1.28,0.14,-0.66,0
44.2,-37.17,0.04,-130.55,-3.11,-136.72,2.25,2.97,0.61,1
41.38,-37.56,-2.14,-31.07,-44.37,155.7,0.12,-0.43,-0.25,1
59.4,-13.6,16.22,5.37,54.08,13.24,0.51,0.36,-0.91,2
51.31,-20.01,19.34,-51.45,17.52,-23.99,1.02,0.1,-0.3,0
41.56,4.3,-47.44,-0.61,0.0,0.49,-0.04,-0.03,1.0,3
24.72,-38.11,-2.16,89.48,42.05,-4.82,0.76,-0.75,-0.36,1
48.24,-8.65,23.82,6.41,10.5,1.22,0.89,0.55,-0.28,0
33.53,-38.4,-3.76,13.85,11.9,88.26,-0.25,0.67,0.23,2
42.11,4.53,-46.81,-0.61,-0.06,0.49,-0.04,-0.03,1.0,3
50.24,-14.15,22.2,78.8,-19.35,36.8,1.17,-0.1,-0.62,0
47.68,-32.82,12.63,18.07,26.25,48.03,0.63,1.86,0.2,1
53.97,-30.9,0.87,14.28,8.24,120.54,0.39,0.99,0.07,2
42.19,4.87,-48.06,-0.55,0.0,0.49,-0.04,-0.03,1.0,3
6.9,-17.07,25.83,7.32,-15.14,-2.5,-0.55,0.26,0.07,2
32.41,-36.62,-0.93,-17.52,-51.76,141.36,0.02,-1.14,-0.79,1
49.0,-18.47,21.18,37.9,-9.46,59.63,1.17,0.3,-0.41,0
50.59,-22.33,18.47,93.32,-41.63,59.39,1.09,0.0,-0.49,0
51.1,-32.4,1.15,-15.5,-5.98,-92.22,0.34,1.05,0.11,2
49.65,-10.61,22.64,-53.16,22.4,-64.7,1.05,0.19,-0.33,0
42.29,4.76,-47.51,-0.73,0.06,0.43,-0.04,-0.03,1.0,3
51.26,-30.65,10.6,75.93,-18.13,37.6,0.61,1.2,0.34,1
42.16,4.76,-47.03,-0.67,0.06,0.37,-0.04,-0.03,1.0,3
49.98,-11.3,21.87,12.63,6.1,11.78,1.07,0.14,-0.36,0
52.25,-10.03,21.08,-19.65,14.04,-10.31,1.06,0.3,-0.35,0
51.0,-27.78,13.9,10.99,-7.2,-10.56,0.83,-0.07,-0.41,0
49.35,-10.55,22.64,-29.17,5.13,-17.64,0.88,0.2,-0.25,0
53.16,-30.54,9.85,-88.07,22.95,-45.96,1.01,-0.03,-0.57,0
23.54,-36.21,2.67,120.24,21.24,40.47,0.56,-0.78,-0.47,1
30.47,-38.21,-1.2,43.58,-59.57,159.67,0.28,-1.03,-0.31,1
48.49,-7.51,23.85,-11.96,-3.05,-1.83,0.89,0.3,-0.34,0
52.33,-29.58,8.86,-22.95,11.9,-19.35,-0.45,0.63,0.46,1
49.6,-11.66,22.88,3.72,5.19,2.56,0.94,0.25,-0.26,0
3.8,-22.68,18.82,10.5,-5.62,-5.92,-0.87,0.27,0.05,2
55.15,-29.77,-2.69,-7.02,8.67,-95.95,0.41,0.93,0.21,2
44.21,-36.63,-3.33,-18.25,-5.8,-105.59,0.01,0.97,0.17,2
52.1,-28.82,12.19,48.22,-9.28,108.95,1.46,1.98,0.18,1
19.67,-22.85,29.31,-0.79,102.05,45.47,-0.49,0.35,-0.45,2
53.0,-28.7,11.25,26.55,-10.25,46.81,0.67,1.03,0.27,1
42.2,4.53,-46.37,-0.79,0.0,0.37,-0.04,-0.03,1.0,3
42.85,4.16,-47.11,-0.61,-0.06,0.49,-0.04,-0.03,1.0,3
36.07,-17.87,33.22,-10.56,-118.84,-32.9,-0.18,0.42,-0.99,2
42.16,4.25,-47.0,-0.67,-0.12,0.43,-0.04,-0.03,1.0,3
42.14,4.96,-47.02,-0.79,0.0,0.49,-0.04,-0.03,1.0,3
42.54,5.19,-46.18,-0.67,0.06,0.55,-0.04,-0.03,1.0,3
57.42,-26.95,2.21,-8.79,8.54,-89.05,0.53,0.99,0.01,2
22.28,-28.94,24.49,-6.47,-13.73,-10.31,-0.5,0.48,-0.21,2
35.73,-20.31,32.46,8.3,72.33,15.99,-0.26,0.42,-0.85,2
58.45,-27.04,1.12,10.44,-10.44,101.2,0.6,1.04,0.12,2
52.05,-27.77,11.54,-64.03,-15.38,159.91,2.85,3.66,0.55,1
50.96,-27.83,14.77,29.85,-37.11,43.4,0.65,-0.22,-0.37,0
61.45,-12.68,11.46,1.22,13.31,2.01,0.55,0.29,-0.86,2
8.4,-20.36,26.12,-23.74,-65.12,-12.39,-0.87,0.29,-0.22,2
48.28,-31.76,11.33,-84.9,75.5,-16.91,-0.47,0.16,0.46,1
43.04,-14.53,32.92,-1.71,-31.56,-2.2,-0.25,0.4,-0.94,2
64.06,-9.23,4.14,-0.73,10.5,-61.89,0.98,0.51,0.06,2
22.09,-21.61,30.75,-13.12,-90.82,-13.85,-0.57,0.45,-0.61,2
62.83,-17.69,1.75,-10.68,2.93,-11.23,0.77,1.0,0.11,2
38.93,-37.72,-2.92,-52.19,-136.72,195.31,0.02,-1.06,-0.56,1
32.65,-38.38,4.02,-80.2,14.16,-175.23,1.74,4.0,-1.27,1
49.0,-10.67,22.29,11.29,10.01,28.75,1.18,0.26,-0.43,0
42.02,4.57,-47.27,-0.73,0.06,0.43,-0.04,-0.03,1.0,3
48.38,-8.13,23.77,29.54,23.44,1.4,0.95,0.2,-0.33,0
42.15,4.44,-47.34,-0.98,-0.12,0.24,-0.04,-0.03,1.0,3
35.71,-36.17,2.12,140.93,32.71,49.26,-0.03,-0.78,-0.62,1
54.39,-25.15,14.83,-39.79,5.31,58.17,-0.52,0.51,0.32,1
64.27,-12.07,2.7,-4.82,-2.01,0.0,0.82,0.7,0.12,2
50.5,-32.74,8.65,-56.95,-4.09,-51.94,0.95,-0.29,-0.58,0
51.4,-27.01,15.1,-78.06,21.97,-44.01,1.02,0.17,-0.38,0
19.15,-16.49,33.18,-13.67,-140.38,-11.47,-0.53,0.35,-0.65,2
58.83,-13.04,18.02,-8.42,-46.2,-12.63,0.49,0.31,-0.9,2
49.6,-15.16,23.65,31.8,-26.79,25.15,0.95,0.22,-0.37,0
50.55,-22.11,18.44,-75.99,38.15,-80.02,1.34,0.04,-0.41,0
21.79,-36.84,-6.2,11.11,1.71,60.91,-0.54,0.34,0.33,2
46.62,-34.69,8.92,75.2,-67.99,176.51,1.65,0.67,-0.32,1
49.5,-11.83,23.47,-20.26,16.3,-89.11,1.07,0.3,-0.21,0
47.71,-11.36,24.44,-13.55,5.74,-1.95,0.69,0.23,-0.24,0
48.11,-12.76,22.64,14.28,0.67,6.1,1.17,0.21,-0.47,0
51.87,-27.65,14.0,13.49,-85.39,-111.33,-0.7,0.71,0.48,1
52.22,-23.17,15.66,-11.78,36.25,-93.51,1.28,-0.07,-0.49,0
51.57,-12.82,19.45,-8.36,9.95,1.4,0.67,0.42,-0.12,0
49.01,-33.73,5.68,-20.08,3.72,18.19,0.67,-0.55,-0.56,0
48.95,-33.24,-0.68,-8.97,17.76,89.97,0.08,0.96,0.15,2
49.88,-11.43,23.47,38.57,3.66,22.95,1.17,0.32,-0.56,0
48.77,-33.81,-0.88,-18.49,2.38,-112.67,0.17,0.89,0.14,2
42.36,4.74,-46.33,-0.79,0.0,0.37,-0.04,-0.03,1.0,3
30.36,-19.67,32.85,37.23,-99.24,-39.55,-0.44,0.49,-0.83,2
42.58,5.02,-47.53,-0.73,0.0,0.31,-0.04,-0.03,1.0,3
30.99,-38.15,-4.16,-5.13,-4.39,-58.17,-0.42,0.72,0.22,2
35.5,-34.9,-1.06,-83.5,5.92,-130.19,4.0,2.91,-1.09,1
33.48,-35.78,-1.32,3.23,51.7,-50.11,0.89,-0.87,-0.28,1
57.52,-11.98,21.02,3.23,-63.17,-24.17,0.43,0.3,-0.99,2
36.58,-36.68,2.28,68.48,-87.83,186.28,0.09,-0.76,-0.39,1
50.57,-29.42,13.82,34.48,-50.72,134.34,3.32,3.29,0.39,1
42.54,4.36,-45.98,-0.73,0.0,0.55,-0.04,-0.03,1.0,3
36.18,-37.04,-2.04,-240.97,-104.13,-197.88,0.63,1.99,0.48,1
42.59,4.96,-47.85,-0.67,-0.06,0.49,-0.04,-0.03,1.0,3
29.48,-38.13,-1.2,4.7,1.46,37.17,-0.53,0.75,0.21,2
53.74,-27.54,12.08,59.14,-22.71,-14.71,0.08,0.4,0.2,1
32.98,-37.19,0.57,8.48,11.41,26.98,0.96,-1.32,-0.63,1
42.27,5.69,-46.64,-0.67,0.12,0.49,-0.04,-0.03,1.0,3
42.32,4.92,-46.84,-0.79,0.06,0.43,-0.04,-0.03,1.0,3
53.19,-19.07,18.18,-11.11,19.23,-37.84,1.13,-0.17,-0.42,0
39.18,-37.07,0.56,-5.13,-11.84,-71.84,-0.13,0.87,0.12,2
21.64,-38.21,-2.31,18.01,22.34,57.68,-0.46,0.43,0.34,2
28.43,-37.61,-0.07,16.24,26.25,-26.61,0.75,-0.87,-0.54,1
52.69,-19.17,17.21,2.26,23.99,9.46,0.99,0.42,-0.13,0
42.44,5.36,-46.95,-0.61,-0.06,0.49,-0.04,-0.03,1.0,3
58.96,-19.24,14.98,-5.98,-38.21,-11.23,0.36,0.5,-0.86,2
50.1,-24.02,17.75,48.4,-15.75,35.83,0.94,0.02,-0.42,0
46.96,-33.87,8.74,8.06,3.17,189.51,2.83,1.28,-0.01,1
50.92,-31.91,10.46,62.56,4.7,5.19,-0.14,0.53,0.09,1
42.5,4.42,-47.34,-0.73,-0.06,0.43,-0.04,-0.03,1.0,3
48.17,-10.61,24.93,1.53,-27.1,67.26,1.1,0.32,-0.5,0
53.1,-30.21,11.74,-13.73,-2.56,4.27,0.72,-0.34,-0.57,0
50.49,-27.06,16.46,-68.05,39.0,-57.01,1.19,0.2,-0.4,0
37.32,-15.01,34.39,-3.23,-93.32,-15.99,-0.29,0.34,-1.05,2
47.49,-34.27,-1.45,-12.15,-6.53,-77.33,0.1,0.95,0.16,2
36.61,-23.93,30.57,9.89,-96.5,-39.49,-0.12,0.45,-0.58,2
11.72,-22.22,25.96,-2.32,31.68,5.19,-0.91,0.38,-0.31,2
50.02,-15.43,20.67,-37.11,-1.46,-9.95,0.97,-0.1,-0.38,0
49.87,-15.53,22.46,15.08,-12.7,77.21,1.22,-0.19,-0.65,0
51.48,-13.39,26.18,-2.62,-49.07,-20.26,0.31,0.35,-0.98,2
50.1,-9.09,22.28,7.51,7.87,35.64,1.06,0.16,-0.48,0
42.16,4.31,-46.85,-0.67,0.12,0.43,-0.04,-0.03,1.0,3
54.2,-24.43,14.71,8.0,-61.46,24.29,0.28,0.73,-0.02,1
52.33,-26.84,15.61,-12.63,52.73,15.87,-0.97,0.44,0.14,1
29.13,-23.11,31.12,27.16,88.87,11.72,-0.48,0.55,-0.81,2
5.97,-14.89,24.27,1.59,43.46,6.53,-0.96,0.25,-0.23,2
49.0,-28.2,15.2,13.55,-23.86,16.78,0.73,-0.06,-0.38,0
56.05,-27.12,8.45,-22.22,-16.6,-45.1,-0.91,0.74,-0.06,1
42.7,4.9,-46.7,-0.79,0.06,0.31,-0.04,-0.03,1.0,3
42.47,5.66,-47.57,-0.61,0.0,0.49,-0.04,-0.03,1.0,3
28.14,-38.31,-4.97,-16.54,-15.93,-96.86,-0.39,0.56,0.24,2
42.15,4.61,-46.73,-0.85,0.0,0.31,-0.04,-0.03,1.0,3
45.69,-33.4,10.02,-65.43,-44.37,264.71,1.39,0.51,-0.57,1
39.67,-37.24,6.59,121.34,26.92,89.54,0.78,0.49,-0.42,1
38.53,-15.6,32.7,-21.0,-50.48,-2.26,-0.34,0.38,-1.01,2
48.52,-12.61,21.42,61.22,6.04,-4.94,1.07,0.28,-0.37,0
43.23,4.92,-45.97,-0.61,0.0,0.37,-0.04,-0.03,1.0,3
49.43,-17.19,21.3,25.82,-5.68,71.59,0.94,0.27,-0.34,0
42.64,4.92,-47.44,-0.67,-0.06,0.43,-0.04,-0.03,1.0,3
41.5,4.53,-48.33,-0.55,0.06,0.49,-0.04,-0.03,1.0,3
3.7,-17.74,22.06,2.32,-47.3,-2.99,-0.73,0.2,0.08,2
41.96,4.7,-47.55,-0.67,-0.06,0.49,-0.04,-0.03,1.0,3
8.01,-18.1,25.2,-0.67,-87.34,-18.98,-0.68,0.25,-0.2,2
4.36,-20.53,18.7,-6.84,-47.79,-8.3,-0.86,0.23,-0.07,2
42.72,4.43,-48.14,-0.61,0.06,0.37,-0.04,-0.03,1.0,3
51.05,-26.38,15.15,-61.46,19.1,-39.79,0.96,0.05,-0.54,0
42.14,5.26,-45.97,-0.73,0.12,0.55,-0.04,-0.03,1.0,3
48.89,-10.44,23.01,22.34,-36.32,58.29,1.25,0.16,-0.51,0
42.29,5.0,-46.17,-0.92,-0.12,0.43,-0.04,-0.03,1.0,3
51.11,-27.89,11.76,-17.21,-4.27,-9.89,0.66,0.05,-0.22,0
49.89,-11.06,22.24,10.8,5.68,-12.76,1.0,0.28,-0.33,0
12.78,-20.09,27.39,2.5,47.97,2.75,-0.82,0.37,-0.39,2
42.63,4.86,-48.29,-0.73,-0.06,0.31,-0.04,-0.03,1.0,3
52.11,-16.82,19.43,-25.57,39.92,-94.85,1.11,0.22,-0.14,0
46.62,-35.63,7.42,-42.3,-13.43,73.85,2.48,4.0,0.28,1
42.16,5.55,-48.02,-0.92,0.06,0.43,-0.04,-0.03,1.0,3
26.01,-37.98,-6.56,-2.38,-10.44,-79.41,-0.54,0.47,0.25,2
42.83,4.6,-46.3,-0.79,-0.06,0.55,-0.04,-0.03,1.0,3
42.4,3.98,-47.55,-0.79,-0.12,0.37,-0.04,-0.03,1.0,3
20.89,-37.16,-1.01,11.78,6.59,57.86,-0.6,0.51,0.2,2
46.95,-33.47,10.99,-10.31,-10.8,103.76,2.26,3.03,0.29,1
42.66,5.47,-47.06,-0.73,-0.12,0.49,-0.04,-0.03,1.0,3
53.85,-26.78,13.17,-27.89,13.55,124.57,2.43,3.67,0.24,1
42.27,4.26,-47.31,-0.85,-0.06,0.43,-0.04,-0.03,1.0,3
42.27,4.74,-46.42,-0.49,0.18,0.49,-0.04,-0.03,1.0,3
50.94,-22.39,18.46,-24.6,30.52,-74.65,1.28,-0.12,-0.42,0
27.04,-37.01,-1.48,21.48,-3.97,24.72,0.94,-0.83,-0.43,1
49.11,-23.07,18.43,-24.35,-2.93,-24.17,0.99,-0.07,-0.5,0
3.88,-14.59,23.25,-1.71,-83.62,-6.65,-0.8,0.2,-0.2,2
51.73,-31.68,10.1,10.07,16.36,-9.28,-1.06,0.46,0.12,1
49.13,-25.17,17.87,-60.24,-7.08,-18.25,1.14,-0.27,-0.53,0
54.49,-24.26,14.25,-38.33,33.63,-78.31,-0.97,1.12,0.37,1
24.27,-14.51,34.48,11.84,99.06,-1.28,-0.55,0.25,-0.7,2
42.75,4.7,-47.28,-0.67,0.06,0.43,-0.04,-0.03,1.0,3
49.52,-10.4,23.96,-9.83,35.4,-45.84,0.86,0.29,-0.2,0
51.84,-19.25,25.02,-11.05,-40.89,-11.6,0.14,0.48,-0.91,2
51.55,-16.48,21.61,40.41,-34.48,59.94,0.95,-0.15,-0.35,0
42.49,4.64,-46.91,-0.73,0.06,0.31,-0.04,-0.03,1.0,3
50.71,-31.6,8.03,-48.58,-22.71,-2.93,-0.75,0.23,0.11,1
52.77,-28.38,10.34,-31.07,13.55,4.46,-0.44,0.64,0.2,1
42.35,4.52,-46.84,-0.79,0.06,0.43,-0.04,-0.03,1.0,3
59.59,-11.78,17.19,19.53,-83.5,-36.01,0.64,0.38,-0.89,2
13.89,-19.82,28.61,16.78,67.38,5.25,-0.7,0.34,-0.34,2
50.7,-20.35,18.51,-39.43,42.11,-66.1,1.37,-0.07,-0.39,0
47.4,-7.91,24.82,25.76,14.16,2.2,1.0,0.2,-0.63,0
50.4,-12.48,22.05,8.73,7.75,30.58,1.02,0.28,-0.42,0
49.18,-8.41,22.79,-9.22,12.76,-36.19,0.85,0.14,-0.25,0
33.76,-17.11,33.37,31.25,111.51,8.85,-0.33,0.38,-0.92,2
42.55,4.83,-46.9,-0.73,0.0,0.43,-0.04,-0.03,1.0,3
42.27,4.47,-46.77,-0.73,0.0,0.43,-0.04,-0.03,1.0,3
49.61,-17.85,21.28,81.42,-17.33,48.52,1.28,-0.05,-0.53,0
58.56,-25.2,-2.03,0.49,16.66,-87.28,0.59,0.91,0.22,2
47.53,-15.61,31.05,-13.92,-66.1,-22.89,0.11,0.4,-0.91,2
50.65,-9.53,22.69,62.38,-23.38,35.77,1.21,0.14,-0.42,0
42.42,4.16,-47.69,-0.61,0.06,0.49,-0.04,-0.03,1.0,3
60.05,-16.86,15.48,-2.75,-39.67,-8.3,0.5,0.38,-0.76,2
54.08,-30.47,-1.82,2.2,0.43,-67.38,0.31,0.94,0.16,2
16.97,-36.07,-4.39,8.42,-2.26,12.02,-0.72,0.33,0.33,2
50.9,-26.57,16.52,3.3,-19.96,30.76,0.71,-0.01,-0.42,0
63.53,-18.97,0.85,-8.61,-14.95,87.1,0.8,0.87,0.14,2
53.83,-30.93,6.59,-20.39,-1.4,10.38,-0.79,0.15,-0.19,1
49.99,-9.67,23.3,29.72,-25.27,86.06,1.13,0.15,-0.48,0
50.38,-33.57,7.35,-5.49,118.96,-292.79,-0.15,1.13,0.29,1
51.06,-32.65,2.99,-0.98,8.91,-88.38,0.32,1.02,0.18,2
49.33,-9.85,22.64,57.37,-3.78,61.4,1.23,0.32,-0.53,0
24.94,-15.53,34.08,-17.4,-82.58,-17.09,-0.52,0.36,-0.84,2
30.81,-36.77,-2.25,1.83,67.02,-100.04,1.05,-0.74,-0.51,1
40.12,-37.46,5.64,117.49,-61.04,271.97,0.19,-0.53,-0.48,1
50.01,-15.95,21.18,-31.92,-0.31,-7.69,0.77,0.11,-0.24,0
49.56,-12.35,23.8,34.42,-9.7,33.39,1.11,0.04,-0.41,0
50.99,-16.03,22.31,43.82,-11.72,23.13,1.14,-0.15,-0.67,0
58.69,-28.11,1.5,-5.92,10.13,-90.39,0.5,0.97,0.17,2
48.4,-32.63,9.45,76.42,-7.45,102.6,1.34,0.02,-0.65,1
56.3,-12.48,20.87,-3.72,-100.28,-14.4,0.49,0.37,-0.96,2
41.94,4.28,-46.77,-0.67,0.0,0.55,-0.04,-0.03,1.0,3
41.91,-18.48,31.1,18.86,97.17,26.92,-0.18,0.39,-1.01,2
49.3,-12.84,23.45,-26.0,39.25,-60.91,0.97,-0.09,-0.22,0
50.98,-32.18,9.83,-30.7,7.63,20.14,0.53,-0.29,-0.46,0
62.49,-20.31,1.15,11.47,-14.71,73.49,0.98,0.93,0.05,2
25.26,-21.35,32.25,-1.59,-71.59,-13.98,-0.52,0.41,-0.64,2
42.44,-17.32,33.25,-6.65,-90.64,-24.96,-0.11,0.39,-1.02,2
49.28,-8.47,24.22,-2.87,11.96,37.84,1.02,0.13,-0.45,0
53.02,-23.27,15.87,-83.5,63.54,-53.1,1.02,0.21,-0.44,0
49.98,-23.13,18.85,23.99,-49.19,36.56,0.79,-0.06,-0.49,0
38.32,-39.25,2.77,-178.71,-40.28,-252.32,0.75,2.16,0.41,1
31.53,-37.81,1.61,30.33,54.2,-134.77,3.02,-0.04,-0.62,1
42.03,4.96,-46.62,-0.61,-0.06,0.43,-0.04,-0.03,1.0,3
42.36,4.9,-46.53,-0.79,-0.12,0.37,-0.04,-0.03,1.0,3
49.63,-21.2,18.58,44.98,-10.68,47.97,0.95,0.02,-0.48,0
52.4,-13.29,26.81,-16.66,34.06,20.45,0.12,0.38,-1.25,2
49.79,-29.15,12.38,-26.25,0.67,-22.03,0.96,-0.03,-0.45,0
51.78,-26.72,14.7,11.29,-6.65,18.86,0.61,-0.15,-0.43,0
50.43,-29.28,11.63,-4.03,-4.58,9.22,0.65,-0.17,-0.4,0
48.95,-24.63,17.97,-38.33,-0.79,-31.68,0.88,0.13,-0.28,0
47.23,-32.75,13.77,21.67,-105.96,162.11,2.21,0.13,-0.36,1
49.43,-18.81,22.0,68.48,-20.08,12.02,1.0,-0.15,-0.47,0
41.83,4.35,-46.94,-0.73,0.0,0.43,-0.04,-0.03,1.0,3
48.41,-26.1,22.33,-10.31,105.96,93.51,0.1,0.84,-0.61,2
51.1,-26.04,14.94,4.52,-3.78,-1.1,0.76,-0.26,-0.55,0
48.01,-9.94,24.54,3.78,-12.7,39.73,1.14,0.18,-0.54,0
52.45,-27.82,11.58,-42.24,-10.25,-0.12,-0.61,0.79,0.2,1
33.22,-33.02,3.42,-15.5,-36.13,125.49,0.42,-0.95,-0.66,1
48.84,-11.34,24.6,25.51,-32.53,63.11,1.13,-0.06,-0.56,0
44.3,-37.66,4.59,71.59,-14.59,190.8,1.32,0.53,0.24,1
53.0,-23.99,16.14,-58.04,57.62,-29.85,0.83,0.1,-0.39,0
50.56,-29.04,12.05,-9.22,-24.54,109.56,3.15,3.32,0.02,1
55.46,-16.61,22.0,-4.94,58.96,17.64,0.29,0.39,-0.94,2
42.18,4.63,-46.24,-0.73,0.06,0.24,-0.04,-0.03,1.0,3
42.41,5.4,-46.42,-0.61,0.06,0.49,-0.04,-0.03,1.0,3
50.76,-33.18,6.21,23.8,10.5,8.42,-0.62,-0.01,0.01,1
53.61,-30.88,-0.35,-11.17,19.59,-93.32,0.43,1.01,0.16,2
31.07,-14.53,33.53,14.65,166.81,15.5,-0.19,0.29,-0.91,2
49.8,-10.74,24.67,49.99,-42.24,54.81,0.96,-0.1,-0.57,0
27.09,-39.06,-0.39,-5.74,-17.46,-90.94,-0.39,0.68,0.23,2
50.61,-10.73,22.09,-8.54,7.75,-5.07,0.7,0.5,-0.21,0
51.94,-31.96,3.53,7.63,-48.22,56.88,0.7,-0.15,-0.35,0
29.54,-35.03,2.43,17.4,0.85,121.46,0.44,-0.82,-0.49,1
49.21,-13.51,22.14,7.87,4.21,11.23,1.11,0.28,-0.36,0
23.03,-36.94,-7.65,-16.24,-8.06,-58.78,-0.56,0.4,0.33,2
29.44,-37.72,-1.79,-62.32,21.3,-152.59,3.9,3.89,-0.12,1
60.99,-22.74,3.1,-6.9,6.1,-66.22,0.75,1.17,0.14,2
62.57,-20.5,1.71,-12.7,5.13,-67.02,0.81,1.01,0.19,2
32.23,-37.87,3.38,6.65,24.6,70.07,-0.33,0.8,0.09,2
49.12,-12.57,23.03,-27.83,-21.0,46.88,1.11,0.2,-0.4,0
50.01,-29.17,13.09,73.61,-62.44,14.95,0.21,0.92,0.27,1
49.02,-34.11,6.64,2.81,-169.43,215.94,0.22,-0.87,-0.12,1
48.57,-14.1,22.18,43.27,-27.65,71.11,1.23,0.14,-0.59,0
38.11,-24.56,29.71,-12.33,-71.23,-33.33,-0.25,0.61,-0.89,2
50.28,-13.29,28.66,-7.08,-70.19,-9.46,0.1,0.33,-1.05,2
42.37,5.64,-48.94,-0.85,-0.06,0.55,-0.04,-0.03,1.0,3
41.74,-36.76,0.65,22.77,21.18,90.39,-0.11,0.8,0.07,2
23.79,-16.2,34.19,-14.71,-83.8,-20.14,-0.51,0.34,-0.77,2
52.25,-25.01,14.98,47.3,-60.36,55.18,0.7,-0.17,-0.34,0
51.46,-24.56,17.1,43.03,-41.32,71.66,0.89,-0.04,-0.4,0
51.9,-30.94,9.34,6.84,14.04,28.99,-0.58,0.2,0.06,1
41.09,-16.43,32.5,5.31,93.93,13.43,-0.24,0.36,-1.1,2
50.33,-15.53,20.61,-55.79,6.65,-48.71,1.05,0.15,-0.22,0
32.68,-37.05,-3.08,-51.64,17.94,-173.52,4.0,4.0,0.0,1
36.23,-35.52,-0.09,-127.69,47.79,-137.21,1.9,2.14,0.46,1
50.54,-16.96,20.69,-25.33,20.32,-51.45,1.06,0.32,-0.18,0
50.43,-12.1,22.31,-66.71,0.92,-41.32,0.98,0.22,-0.28,0
24.85,-38.33,-6.37,-8.97,-12.33,-78.98,-0.47,0.52,0.33,2
42.85,-36.3,8.06,137.15,8.36,82.09,0.4,-0.15,-0.5,1
53.92,-20.17,16.22,-3.54,-6.65,-11.84,0.88,0.18,-0.05,0
47.07,-15.6,28.86,4.82,92.29,16.54,0.09,0.37,-1.1,2
50.33,-20.4,18.19,-32.71,23.99,-58.53,1.26,0.13,-0.33,0
42.64,5.15,-47.03,-0.79,0.06,0.49,-0.04,-0.03,1.0,3
1.37,-13.72,19.63,14.83,27.65,7.87,-0.8,0.19,0.2,2
29.37,-36.63,0.11,-1.95,27.4,-53.59,1.09,-1.12,-0.52,1
51.1,-31.54,7.46,-35.95,27.28,-6.29,-0.55,0.69,0.2,1
11.49,-19.18,27.22,7.14,-6.41,-5.25,-0.81,0.34,-0.31,2
50.55,-13.94,20.64,18.01,11.35,0.98,1.02,0.17,-0.37,0
48.08,-14.25,29.43,-5.74,102.48,33.08,0.15,0.28,-0.99,2
49.76,-12.45,21.95,-0.12,4.03,-25.39,0.86,0.11,-0.25,0
51.4,-24.57,16.59,-72.08,-6.47,-15.93,1.03,-0.15,-0.54,0
42.29,5.14,-47.33,-0.73,-0.06,0.43,-0.04,-0.03,1.0,3
30.48,-38.85,-3.78,-6.04,22.77,-68.05,1.76,-0.54,-0.61,1
49.38,-17.66,19.87,-49.99,6.04,-30.82,0.82,0.03,-0.38,0
50.15,-21.3,18.33,-42.6,4.82,-26.86,1.04,0.19,-0.33,0
49.16,-11.95,23.4,19.78,-2.93,47.12,0.76,0.3,-0.53,0
41.69,5.43,-47.47,-0.85,-0.06,0.49,-0.04,-0.03,1.0,3
24.19,-27.22,28.0,-19.35,-44.86,-17.09,-0.58,0.52,-0.53,2
50.24,-27.06,13.95,41.75,-18.62,41.69,0.94,0.02,-0.39,0
36.18,-36.76,-2.58,10.99,-0.37,92.65,-0.19,0.74,0.15,2
42.02,4.15,-46.08,-0.79,0.0,0.49,-0.04,-0.03,1.0,3
42.15,4.42,-48.03,-0.67,0.0,0.43,-0.04,-0.03,1.0,3
53.06,-24.39,16.92,-28.44,-12.15,3.85,0.72,0.03,-0.33,0
27.84,-37.63,1.38,11.96,10.8,58.84,-0.48,0.73,0.17,2
54.33,-27.45,8.44,-8.61,21.24,14.95,-0.33,0.75,0.19,1
54.48,-20.98,21.89,8.3,49.87,17.46,0.26,0.49,-0.86,2
34.5,-38.38,0.43,-10.99,-11.05,-94.6,-0.2,0.84,0.2,2
49.83,-13.29,20.39,34.36,-26.06,50.35,0.79,0.12,-0.36,0
41.94,4.72,-48.03,-0.67,0.12,0.49,-0.04,-0.03,1.0,3
49.43,-12.4,22.36,-32.59,2.93,-14.34,0.98,0.12,-0.29,0
27.2,-38.27,-2.87,-18.98,-12.21,-111.88,-0.34,0.56,0.21,2
49.22,-32.06,10.03,78.61,15.93,-60.3,-0.86,0.55,0.32,1
50.96,-19.92,19.67,-46.51,6.23,-38.76,1.11,0.05,-0.34,0
42.13,4.58,-47.05,-0.61,0.12,0.49,-0.04,-0.03,1.0,3
50.35,-32.87,-4.24,-6.41,12.21,-92.96,0.27,0.91,0.25,2
50.21,-21.33,19.36,32.59,-23.32,41.69,0.98,-0.07,-0.43,0
48.8,-31.16,14.88,-31.13,13.49,122.86,4.0,3.16,0.41,1
58.47,-14.94,17.4,18.55,56.21,0.37,0.47,0.38,-0.99,2
61.6,-21.87,0.79,-11.35,-10.99,62.74,0.72,0.91,0.1,2
27.15,-39.31,-0.35,35.58,31.49,93.63,-0.26,0.5,0.24,2
41.85,4.36,-47.75,-0.79,0.0,0.49,-0.04,-0.03,1.0,3
34.99,-39.11,2.51,-180.6,-55.6,-350.59,0.03,1.64,0.03,1
47.75,-8.57,24.52,-16.36,12.21,22.71,0.95,0.11,-0.37,0
51.51,-29.16,13.4,-63.96,7.2,-7.45,1.07,-0.33,-0.69,0
51.31,-21.52,18.13,65.67,-41.44,96.92,1.0,0.04,-0.31,0
59.68,-25.94,2.6,8.91,-3.78,101.81,0.63,0.96,0.04,2
47.72,-8.08,24.9,12.88,-9.7,7.81,1.24,0.28,-0.56,0
50.46,-8.85,22.69,-37.72,14.1,-10.56,0.84,0.4,-0.2,0
42.5,4.7,-46.66,-0.79,-0.12,0.31,-0.04,-0.03,1.0,3
49.77,-30.83,13.99,-12.45,-1.71,-7.87,-0.41,0.52,0.03,1
53.92,-25.51,13.82,104.8,-32.65,67.2,0.82,1.39,0.03,1
42.15,4.87,-46.73,-0.79,0.0,0.61,-0.04,-0.03,1.0,3
50.42,-9.31,22.8,-20.75,5.0,-10.93,0.83,0.46,-0.26,0
48.83,-9.68,24.08,4.15,-8.67,42.6,1.09,0.17,-0.57,0
56.51,-10.84,21.15,-32.1,79.47,25.27,0.26,0.33,-1.17,2
34.53,-36.89,2.01,-64.58,12.45,-216.86,3.43,4.0,-0.46,1
51.09,-14.18,22.55,61.46,-28.99,49.44,1.19,-0.06,-0.62,0
64.05,-18.41,0.96,-6.77,-4.09,12.27,0.7,1.17,0.17,2
54.54,-30.13,7.53,44.92,-51.15,62.87,0.77,-0.21,-0.44,0
51.78,-28.33,11.73,1.95,-9.64,96.86,2.47,3.69,-0.04,1
60.68,-24.38,-1.77,-2.99,22.4,-85.75,0.67,0.97,0.17,2
48.67,-14.86,22.71,16.48,-30.4,52.49,0.94,0.14,-0.58,0
42.05,4.88,-47.67,-0.85,-0.06,0.55,-0.04,-0.03,1.0,3
48.86,-9.91,23.12,42.11,10.93,8.85,1.12,0.19,-0.36,0
61.94,-15.0,10.69,2.32,-30.03,-9.7,0.6,0.37,-0.74,2
26.21,-37.65,-3.34,-17.52,62.44,-129.27,3.62,1.04,-0.38,1
42.76,5.04,-46.17,-0.67,0.06,0.37,-0.04,-0.03,1.0,3
50.29,-14.55,21.52,103.76,-38.76,51.45,1.2,-0.06,-0.36,0
51.11,-22.47,17.3,81.48,-13.12,24.84,1.14,0.04,-0.36,0
39.59,-37.77,3.99,147.89,-33.81,52.86,0.46,-0.05,-0.62,1
51.23,-31.65,8.65,54.69,12.39,27.34,0.38,0.89,0.36,1
60.5,-12.21,15.71,-6.65,40.47,13.61,0.43,0.43,-1.04,2
42.53,5.41,-47.27,-0.92,0.0,0.55,-0.04,-0.03,1.0,3
62.04,-10.27,10.78,12.45,-31.19,-17.15,0.55,0.4,-1.03,2
41.66,4.91,-46.81,-0.67,0.06,0.43,-0.04,-0.03,1.0,3
50.05,-12.95,22.27,-30.21,28.69,-74.65,0.98,0.22,-0.26,0
42.33,5.41,-46.8,-0.73,0.0,0.43,-0.04,-0.03,1.0,3
54.13,-23.79,14.04,111.88,-4.94,-64.03,-0.82,1.28,0.02,1
51.05,-31.88,8.29,-33.75,11.23,-19.1,0.92,-0.14,-0.46,0
28.34,-33.53,4.7,30.03,10.19,105.83,0.19,-0.76,-0.29,1
25.57,-38.22,-1.28,-2.75,33.75,-52.06,1.08,-0.93,-0.32,1
45.69,-33.35,12.27,83.98,-19.78,-15.99,-0.12,0.49,0.19,1
51.33,-12.43,21.12,79.59,-7.87,26.43,1.06,0.23,-0.47,0
52.04,-24.16,22.12,19.17,-28.5,-53.83,0.21,0.7,-0.74,2
47.88,-7.92,23.34,-12.76,9.22,-24.05,0.81,0.31,-0.21,0
37.49,-35.85,-3.56,-81.54,45.9,-115.11,3.23,4.0,0.66,1
30.11,-38.56,-1.81,-28.38,14.47,-74.46,1.26,-0.38,-0.27,1
53.02,-19.46,17.68,-61.1,53.65,-57.5,1.1,-0.06,-0.25,0
8.7,-21.69,23.65,9.95,71.84,11.23,-0.85,0.3,-0.22,2
42.13,5.09,-48.24,-0.61,0.0,0.37,-0.04,-0.03,1.0,3
52.04,-30.2,10.29,-124.82,-10.74,-252.62,0.06,1.19,0.24,1
50.7,-15.44,21.36,-98.75,-2.38,-58.04,1.13,0.14,-0.27,0
49.67,-11.52,21.77,11.17,-2.75,41.26,1.17,0.15,-0.38,0
53.38,-27.01,12.28,-37.48,19.41,-5.49,-0.64,0.64,0.14,1
52.14,-13.82,27.26,-0.67,120.97,34.55,0.33,0.38,-1.18,2
51.6,-13.02,21.36,-44.37,47.79,-46.08,1.05,0.25,-0.16,0
30.43,-35.27,3.47,187.99,-2.14,47.61,0.6,-0.82,-0.52,1
52.12,-26.32,15.06,31.62,-22.34,8.36,-0.26,0.77,0.13,1
18.79,-19.4,31.13,28.69,59.57,4.82,-0.53,0.27,-0.47,2
50.07,-23.14,16.2,-43.82,15.14,-25.27,0.85,0.14,-0.34,0
61.99,-21.33,4.48,-2.69,-6.84,98.51,0.75,1.05,-0.01,2
42.42,4.61,-47.39,-0.67,0.0,0.31,-0.04,-0.03,1.0,3
47.96,-6.31,24.37,-4.76,10.99,-44.37,0.86,0.27,-0.31,0
49.51,-34.17,5.31,-33.02,-13.12,-85.82,0.27,1.15,0.08,2
32.24,-38.33,-1.01,6.71,3.23,33.57,-0.39,0.75,0.18,2
38.18,-19.37,31.31,0.85,60.79,14.95,-0.24,0.42,-0.89,2
49.4,-22.18,18.82,54.75,-21.18,41.32,1.01,-0.16,-0.43,0
48.85,-29.9,13.28,2.38,-4.7,6.29,0.66,-0.07,-0.36,0
50.95,-14.87,21.01,52.37,-15.56,77.88,1.1,0.21,-0.37,0
55.85,-18.93,21.56,16.05,70.37,37.17,0.36,0.62,-0.87,2
52.93,-26.61,15.22,-36.5,60.42,16.97,-0.59,0.31,0.16,1
47.88,-32.14,12.33,26.06,4.15,116.09,0.91,1.26,-0.02,1
20.45,-36.96,-6.99,3.11,12.15,46.26,-0.6,0.26,0.34,2
42.03,4.72,-48.14,-0.67,0.0,0.31,-0.04,-0.03,1.0,3
32.32,-38.62,2.34,206.67,-23.93,226.2,0.31,-0.26,-0.18,1
50.33,-32.56,10.14,-93.57,-36.13,-23.8,-0.88,0.29,0.13,1
47.31,-14.9,30.25,-18.49,-101.26,-27.71,0.15,0.37,-0.99,2
23.88,-37.59,-7.41,-0.18,-0.18,-12.88,-0.59,0.48,0.34,2
42.21,4.66,-47.97,-0.67,0.0,0.37,-0.04,-0.03,1.0,3
39.04,-36.25,-1.61,-124.08,3.91,-117.25,1.72,2.05,0.48,1
13.28,-16.09,31.01,-13.79,-104.98,-11.54,-0.64,0.29,-0.53,2
43.57,-34.55,8.59,28.14,-35.77,156.37,3.11,1.43,0.21,1
46.15,-34.57,9.58,40.59,27.59,126.89,3.86,3.1,0.42,1
38.09,-36.34,6.49,53.65,41.32,110.9,1.02,0.07,-0.55,1
42.18,5.08,-47.46,-0.73,0.0,0.55,-0.04,-0.03,1.0,3
36.54,-36.71,1.25,-111.27,-6.1,-84.78,2.56,4.0,-0.58,1
51.88,-19.23,19.97,16.54,-37.96,50.35,0.88,-0.02,-0.47,0
49.45,-11.76,23.24,-7.81,8.97,-26.0,0.8,0.36,-0.27,0
50.61,-26.42,16.94,50.35,-36.8,96.44,0.97,-0.04,-0.53,0
25.79,-38.02,-3.58,-5.25,42.91,-56.09,0.93,-0.64,-0.34,1
30.49,-36.29,2.39,19.96,-4.64,109.5,0.26,-1.0,-0.7,1
54.33,-33.4,7.08,-7.02,3.72,-18.37,0.82,-0.15,-0.48,0
50.95,-31.29,10.78,-54.93,36.38,27.95,-0.75,0.66,0.01,1
14.86,-15.41,31.6,9.64,80.63,11.54,-0.61,0.25,-0.44,2
50.42,-13.89,20.4,-15.93,11.47,-21.61,0.82,0.28,-0.14,0
48.57,-33.64,4.68,-39.98,-15.81,-39.79,0.95,-0.24,-0.52,0
48.63,-7.62,24.04,-7.45,-12.63,24.84,1.13,0.16,-0.51,0
52.51,-26.84,14.78,-94.06,0.61,-22.03,0.81,-0.12,-0.66,0
42.87,4.88,-47.33,-0.92,-0.12,0.49,-0.04,-0.03,1.0,3
52.05,-31.86,-1.22,-11.6,5.19,-72.88,0.27,0.96,0.16,2
49.76,-13.95,22.27,-7.75,-4.09,-27.95,0.88,0.1,-0.2,0
17.88,-14.75,31.68,10.86,80.99,14.28,-0.64,0.28,-0.62,2
41.87,4.41,-47.61,-0.55,-0.12,0.31,-0.04,-0.03,1.0,3
30.59,-21.13,32.75,5.62,60.3,12.02,-0.4,0.41,-0.74,2
41.91,-36.44,-1.82,8.48,5.31,77.03,-0.07,0.96,0.21,2
61.21,-11.73,13.9,11.54,-14.95,-12.02,0.54,0.42,-1.02,2
49.85,-8.07,24.63,49.38,24.41,-11.54,1.13,0.06,-0.28,0
47.16,-33.84,8.85,55.36,-19.29,160.83,1.28,0.46,-0.37,1
52.21,-27.69,11.39,24.48,-47.3,57.19,0.76,-0.14,-0.19,0
42.0,4.8,-47.5,-0.79,-0.06,0.37,-0.04,-0.03,1.0,3
50.15,-35.28,5.9,-155.52,-72.57,-237.06,-0.03,0.63,0.3,1
56.65,-16.74,20.57,-5.43,-48.89,-24.11,0.29,0.47,-0.9,2
34.01,-37.46,5.21,157.65,-74.34,128.78,0.14,-0.53,-0.34,1
42.71,5.05,-46.37,-0.85,0.0,0.24,-0.04,-0.03,1.0,3
41.82,4.94,-47.84,-0.49,0.0,0.49,-0.04,-0.03,1.0,3
60.14,-15.91,14.71,2.81,53.22,9.16,0.52,0.38,-0.83,2
27.86,-37.85,-7.6,4.27,-7.87,-53.71,-0.49,0.64,0.37,2
64.01,-8.36,3.16,-20.75,-6.16,41.08,0.98,0.5,0.08,2
35.33,-27.53,28.03,36.32,95.83,52.37,-0.18,0.66,-0.63,2
42.59,5.13,-47.0,-0.79,-0.12,0.43,-0.04,-0.03,1.0,3
50.88,-17.13,20.21,34.3,-2.62,17.15,1.06,-0.1,-0.38,0
30.62,-34.78,-0.94,2.87,-70.01,148.56,0.24,-1.45,-0.64,1
48.23,-13.48,24.4,78.25,-32.17,22.64,1.2,-0.04,-0.58,0
49.5,-19.91,20.25,30.88,-9.16,48.52,0.85,-0.18,-0.39,0
21.86,-36.63,-4.83,-3.72,12.39,62.93,-0.56,0.57,0.31,2
48.11,-34.28,-1.68,41.56,20.87,113.53,0.15,0.85,0.13,2
42.99,4.69,-47.06,-0.67,0.0,0.49,-0.04,-0.03,1.0,3
58.18,-13.18,18.87,-6.96,0.67,3.54,0.34,0.51,-1.11,2
51.86,-28.44,13.85,86.12,-23.19,54.75,0.94,-0.09,-0.44,0
50.32,-12.76,22.27,10.86,35.52,-80.02,0.91,0.07,-0.25,0
49.15,-11.46,23.47,-24.54,19.1,-42.97,0.93,0.17,-0.21,0
51.38,-27.77,13.39,52.31,-52.31,89.05,0.77,-0.21,-0.37,0
28.56,-36.12,0.84,45.29,6.04,189.82,0.25,-0.99,-0.32,1
50.35,-12.7,19.89,3.97,20.81,-2.2,0.65,0.37,-0.13,0
54.77,-13.72,24.07,-4.7,-82.82,-26.49,0.32,0.4,-1.1,2
49.99,-13.53,21.59,-26.86,-10.74,0.49,0.91,0.39,-0.22,0
58.26,-26.62,-1.33,-6.59,16.42,-94.91,0.6,1.0,0.19,2
58.47,-26.39,0.95,-9.09,18.43,-67.38,0.48,0.89,0.17,2
40.89,-34.96,-3.06,-205.02,-2.2,-205.2,0.81,1.29,0.64,1
48.52,-13.64,22.8,86.91,-5.25,24.05,1.11,0.05,-0.52,0
41.7,4.48,-46.23,-0.73,0.0,0.49,-0.04,-0.03,1.0,3
44.1,-20.42,29.24,0.92,73.0,19.17,-0.08,0.45,-0.87,2
50.63,-29.25,12.28,-22.83,26.31,-32.53,-0.54,0.79,0.13,1
57.13,-27.28,5.96,-18.74,0.67,-82.34,0.5,0.89,0.09,2
35.75,-33.7,0.62,-112.55,18.74,-89.84,1.98,2.79,0.6,1
33.45,-37.89,7.28,144.04,34.67,239.62,0.46,0.43,-0.51,1
52.45,-15.26,19.15,-30.76,23.99,-42.48,0.89,0.15,-0.08,0
33.9,-17.59,34.01,8.79,54.87,17.7,-0.33,0.36,-0.96,2
27.11,-37.89,-1.28,15.93,21.79,104.98,-0.3,0.54,0.18,2
52.23,-29.03,12.71,-128.66,3.05,-210.14,-0.01,0.67,0.25,1
56.57,-13.13,22.17,15.63,-83.37,-58.11,0.45,0.37,-0.96,2
33.12,-38.07,-2.93,14.83,5.31,91.74,-0.31,0.83,0.2,2
51.67,-22.2,17.87,62.93,-57.8,95.76,0.97,-0.22,-0.41,0
48.1,-33.25,5.35,140.38,-11.54,25.63,0.85,-0.01,-0.2,1
51.88,-31.19,7.69,50.66,-5.98,60.24,1.38,2.36,0.43,1
48.17,-11.99,23.83,14.28,7.26,64.76,1.15,0.26,-0.43,0
37.57,-36.43,-1.51,-72.51,39.79,-122.99,4.0,4.0,0.13,1
31.02,-31.87,2.66,11.78,-48.71,93.57,0.27,-0.5,-0.6,1
50.09,-33.25,6.26,-234.5,45.17,-288.21,0.66,1.45,0.56,1
51.22,-30.55,10.68,12.45,1.16,101.07,3.71,4.0,0.38,1
30.88,-38.37,-0.9,-50.9,-20.51,-218.75,2.36,4.0,-0.31,1
48.06,-31.02,11.87,-6.16,-36.07,52.19,0.12,0.61,0.07,1
54.0,-29.03,11.99,-18.07,-13.37,-29.79,0.84,-0.17,-0.51,0
59.59,-13.28,16.05,5.68,-31.37,1.59,0.46,0.39,-1.04,2
50.48,-30.55,12.83,69.64,-45.1,63.48,0.9,1.37,0.06,1
49.16,-13.76,21.77,30.33,-4.58,57.86,0.93,0.26,-0.39,0
52.27,-23.01,15.97,-90.76,21.61,-14.28,0.99,0.39,-0.19,0
52.17,-26.77,15.3,6.04,18.62,28.69,-0.83,0.79,-0.03,1
20.9,-37.16,-7.01,13.55,11.17,55.54,-0.64,0.36,0.31,2
50.06,-15.73,21.28,-43.52,15.14,-44.56,1.0,0.23,-0.22,0
25.4,-38.09,-2.43,40.04,30.88,-3.6,0.97,-0.84,-0.64,1
48.9,-7.62,25.32,9.4,12.45,44.98,1.39,-0.03,-0.58,0
42.0,4.27,-46.97,-0.85,-0.06,0.49,-0.04,-0.03,1.0,3
50.7,-19.89,20.79,-29.85,38.76,-67.87,1.24,-0.19,-0.5,0
29.15,-37.02,1.4,67.81,23.01,-4.09,0.86,-0.76,-0.44,1
49.83,-16.14,21.89,38.57,10.93,46.81,0.9,0.26,-0.35,0
52.54,-18.86,23.45,-1.59,71.04,22.77,0.24,0.46,-0.95,2
16.09,-17.33,31.49,6.71,62.32,12.33,-0.72,0.31,-0.59,2
58.85,-26.73,1.93,2.56,-15.01,88.01,0.58,1.09,0.13,2
63.23,-7.03,3.72,2.75,6.53,-27.53,0.94,0.47,0.05,2
52.37,-28.58,14.31,-12.7,86.61,-34.67,-0.66,1.42,0.4,1
49.18,-10.19,23.65,1.53,-2.38,40.59,1.22,0.12,-0.58,0
51.01,-30.48,9.09,31.43,-30.27,39.25,0.52,-0.24,-0.34,0
42.05,5.35,-47.61,-0.55,0.0,0.37,-0.04,-0.03,1.0,3
50.56,-10.13,22.8,-9.4,14.28,-18.25,1.18,0.43,-0.36,0
50.68,-13.62,27.98,-13.79,-80.99,-8.3,0.23,0.37,-1.05,2
40.94,-36.01,-3.08,-4.94,-21.0,-83.74,-0.16,0.9,0.14,2
53.77,-21.29,14.99,-0.49,-5.92,-6.71,0.96,0.13,0.01,0
37.24,-38.18,1.51,-76.48,-6.84,-163.76,1.67,2.86,0.14,1
42.18,4.61,-46.48,-0.79,-0.06,0.37,-0.04,-0.03,1.0,3
60.19,-12.32,14.43,-2.32,-55.05,-6.29,0.6,0.29,-0.87,2
53.39,-20.02,23.39,-18.98,-58.84,-5.98,0.25,0.49,-0.88,2
50.93,-27.67,15.41,64.64,-64.09,78.31,0.35,0.3,0.14,1
49.57,-10.22,21.46,-13.37,15.08,-35.22,0.87,0.14,-0.23,0
36.34,-37.37,4.39,42.24,-73.06,245.67,0.42,-0.95,-0.11,1
51.2,-31.37,11.07,17.15,-39.37,43.7,0.67,-0.16,-0.48,0
49.9,-14.94,20.56,-12.51,12.33,-38.27,0.86,0.25,-0.16,0
38.11,-36.56,-1.34,24.11,35.03,-97.66,4.0,4.0,-0.61,1
23.63,-38.04,-4.58,10.38,4.76,30.58,-0.55,0.53,0.32,2
57.58,-12.71,20.3,-3.11,80.87,24.6,0.44,0.27,-0.99,2
47.92,-34.06,0.72,4.39,15.5,96.44,0.11,0.87,0.14,2
51.65,-21.17,18.55,-11.47,48.03,-65.06,1.27,-0.12,-0.37,0
50.66,-17.76,20.97,79.77,-18.37,21.12,1.22,-0.09,-0.47,0
42.26,4.57,-46.73,-0.61,0.06,0.43,-0.04,-0.03,1.0,3
49.46,-6.46,24.13,42.11,20.39,19.59,1.15,0.23,-0.45,0
49.21,-25.28,17.46,37.41,-12.33,20.02,0.73,-0.19,-0.38,0
50.73,-18.19,19.46,49.38,-5.74,49.68,1.01,0.24,-0.25,0
48.9,-31.05,11.3,12.94,-8.54,29.17,0.69,-0.08,-0.34,0
41.97,4.94,-45.89,-0.79,0.06,0.37,-0.04,-0.03,1.0,3
31.21,-35.82,4.05,66.96,56.82,61.1,0.28,-0.72,-0.58,1
15.23,-35.79,-4.64,-2.81,-7.14,28.44,-0.77,0.49,0.26,2
51.15,-30.69,11.96,-28.81,35.28,16.72,-0.65,0.81,0.27,1
23.29,-37.0,-0.98,121.58,43.46,37.05,0.71,-0.52,-0.45,1
52.81,-28.71,12.49,-28.87,33.39,-16.85,-0.76,0.41,0.09,1
51.59,-29.37,10.89,103.7,62.19,-13.12,-0.56,0.54,0.45,1
42.48,4.5,-47.19,-0.61,0.12,0.49,-0.04,-0.03,1.0,3
42.54,4.61,-46.15,-0.67,0.06,0.49,-0.04,-0.03,1.0,3
47.55,-33.62,7.58,46.33,-37.96,162.6,2.99,2.59,-0.16,1
31.67,-36.93,-0.98,-2.56,59.88,-78.06,1.28,-0.55,-0.25,1
45.21,-35.84,1.35,-14.83,0.31,-102.36,0.15,1.14,0.14,2
25.17,-37.99,-4.94,1.46,-13.79,-36.38,-0.55,0.67,0.32,2
49.8,-13.49,21.18,37.29,-1.1,26.67,1.25,0.28,-0.43,0
49.82,-6.54,25.16,-20.02,17.52,-13.49,0.92,0.27,-0.32,0
50.44,-17.2,21.11,52.31,0.37,34.85,1.19,0.06,-0.41,0
50.94,-26.56,13.33,25.02,-15.56,38.21,0.83,0.01,-0.3,0
42.68,5.08,-46.64,-0.67,-0.06,0.43,-0.04,-0.03,1.0,3
48.33,-32.37,12.76,-41.5,16.72,85.27,3.46,3.86,0.35,1
51.6,-25.82,13.65,-76.6,18.98,-48.77,1.02,0.16,-0.41,0
49.8,-11.9,21.9,-23.07,4.7,-8.54,0.83,0.3,-0.25,0
50.42,-31.63,10.45,21.42,-21.12,41.93,0.55,-0.11,-0.38,0
43.08,-35.47,8.29,28.75,17.88,188.48,0.78,-0.05,-0.67,1
36.08,-37.38,-2.44,-31.19,30.58,-68.3,3.99,1.05,-1.09,1
42.44,4.83,-47.9,-0.73,-0.06,0.37,-0.04,-0.03,1.0,3
61.55,-20.41,6.37,-90.27,33.26,60.12,0.52,0.92,-0.53,2
48.74,-12.27,22.91,62.99,-37.96,32.59,1.09,0.05,-0.58,0
41.61,4.77,-46.42,-0.98,-0.06,0.49,-0.04,-0.03,1.0,3
37.68,-37.79,1.57,-128.11,20.69,-143.86,2.6,3.99,0.25,1
41.85,5.09,-46.03,-0.79,0.12,0.43,-0.04,-0.03,1.0,3
49.52,-29.81,13.12,-87.71,1.77,-26.92,0.87,-0.07,-0.47,0
45.31,-34.77,6.49,34.0,-6.71,281.43,1.55,0.19,-0.53,1
45.84,-35.93,-2.2,16.97,1.77,92.04,0.17,0.94,0.17,2
62.49,-20.37,2.03,-5.74,1.71,-67.14,0.71,0.89,0.14,2
36.08,-36.79,-2.51,22.71,4.46,75.93,-0.22,0.75,0.25,2
56.1,-23.88,15.73,-29.85,80.99,92.04,0.39,1.0,-0.71,2
55.38,-14.17,23.5,-11.6,-57.25,-1.46,0.32,0.38,-1.0,2
42.37,5.38,-47.55,-0.73,0.06,0.55,-0.04,-0.03,1.0,3
50.7,-21.14,20.18,50.72,-60.73,87.52,1.06,-0.02,-0.57,0
41.91,5.66,-46.52,-0.55,0.12,0.43,-0.04,-0.03,1.0,3
42.58,-16.17,32.9,-9.95,-77.51,-15.87,-0.08,0.36,-0.98,2
42.24,5.3,-47.34,-0.67,0.06,0.37,-0.04,-0.03,1.0,3
50.1,-19.23,19.34,-50.72,23.44,-26.12,1.17,-0.02,-0.49,0
51.66,-29.85,9.34,22.95,-54.93,59.57,0.64,-0.14,-0.25,0
-0.4,-16.25,17.49,4.09,24.17,9.16,-0.82,0.24,0.19,2
30.49,-36.46,2.44,121.4,30.27,62.87,0.59,-0.58,-0.45,1
45.48,-34.46,9.2,11.41,-81.6,176.15,1.49,0.23,-0.8,1
46.83,-11.54,24.88,80.69,-30.88,51.64,1.21,0.0,-0.69,0
11.61,-16.93,29.16,-16.66,-101.32,-21.36,-0.65,0.29,-0.32,2
54.19,-25.55,14.34,-59.81,19.35,-7.2,-0.38,0.79,0.39,1
52.37,-23.57,17.46,-37.96,33.2,-42.11,0.94,0.21,-0.36,0
27.14,-38.89,1.31,14.83,10.5,89.29,-0.37,0.62,0.19,2
50.44,-7.53,22.33,-1.95,8.67,-0.37,0.97,0.32,-0.39,0
60.66,-24.93,0.34,8.3,-7.08,94.24,0.68,1.02,0.07,2
50.51,-29.66,10.39,-4.46,-6.35,23.44,0.56,-0.16,-0.39,0
47.45,-8.52,24.41,20.2,3.05,-17.94,1.33,0.3,-0.22,0
51.97,-20.26,18.74,94.79,-58.29,56.27,0.89,-0.16,-0.49,0
55.42,-24.01,12.95,-22.95,-6.71,9.89,-0.69,0.87,0.47,1
53.81,-30.66,8.14,19.9,-41.08,39.18,0.58,-0.16,-0.47,0
52.12,-23.22,16.99,56.76,-31.19,44.01,0.75,1.17,0.14,1
42.16,4.98,-46.69,-0.85,0.06,0.43,-0.03,-0.03,1.0,3
18.43,-37.02,-0.73,7.87,0.31,34.0,-0.63,0.42,0.37,2
21.61,-38.49,-1.61,-5.55,-18.25,-65.61,-0.52,0.51,0.29,2
49.06,-14.1,20.95,-5.74,-6.23,38.33,0.96,0.31,-0.36,0
37.5,-37.44,6.52,-92.83,-20.94,-176.27,1.37,2.33,0.56,1
61.62,-15.53,10.97,7.75,-19.29,-2.01,0.56,0.42,-0.88,2
51.51,-29.99,12.43,-58.11,-11.23,74.34,-0.65,0.64,0.15,1
49.37,-27.53,15.09,-0.37,-3.36,10.8,0.68,-0.03,-0.32,0
25.57,-37.13,1.57,-34.36,-14.95,-53.34,0.96,-0.87,-0.45,1
53.78,-24.21,14.98,-27.71,-47.67,28.56,0.25,0.83,0.12,1
51.01,-19.74,18.16,49.93,-14.16,53.04,1.13,0.13,-0.24,0
48.44,-12.79,24.69,23.01,-36.07,77.33,1.18,0.16,-0.56,0
49.23,-7.2,23.45,9.83,2.81,-42.42,1.29,0.03,-0.32,0
50.57,-29.37,14.01,26.12,-32.17,59.45,0.6,-0.23,-0.47,0
50.85,-17.93,20.09,9.4,36.74,-73.3,0.9,0.15,-0.19,0
49.87,-4.9,22.07,-16.97,6.35,5.43,0.77,0.46,-0.29,0
51.94,-20.81,19.26,62.19,-50.6,66.83,0.78,-0.24,-0.44,0
51.57,-30.59,7.69,-122.92,81.42,-31.07,-0.3,0.52,0.5,1
46.31,-35.49,-1.62,-15.5,5.92,-111.15,0.3,0.95,0.2,2
50.01,-11.8,23.17,-41.02,-6.41,-42.11,0.9,0.31,-0.17,0
42.05,4.44,-46.46,-0.67,0.0,0.49,-0.04,-0.03,1.0,3
41.85,4.85,-47.63,-0.55,0.0,0.31,-0.04,-0.03,1.0,3
62.59,-21.11,1.29,-11.23,1.95,-59.94,0.66,0.8,0.12,2
5.38,-21.34,21.12,4.09,-13.67,-2.75,-0.79,0.33,0.04,2
57.71,-13.78,20.13,6.1,-35.34,-13.37,0.36,0.32,-0.91,2
57.43,-10.89,20.83,-10.38,79.1,34.12,0.4,0.4,-1.05,2
42.5,5.32,-47.91,-0.92,0.0,0.49,-0.04,-0.03,1.0,3
52.53,-22.92,17.21,61.22,-35.34,34.61,0.83,-0.2,-0.38,0
50.46,-26.29,15.72,-88.44,8.91,-50.35,0.93,0.17,-0.42,0
55.54,-13.38,22.97,1.83,-76.48,-44.62,0.34,0.42,-1.07,2
59.96,-24.49,0.7,4.03,-0.55,99.06,0.62,1.04,0.09,2
26.09,-37.17,-1.84,98.33,54.93,30.64,0.99,-0.82,-0.35,1
26.32,-37.99,0.82,52.19,29.85,-66.65,1.02,-0.56,-0.18,1
51.72,-14.48,26.33,-6.53,-75.68,-25.63,0.26,0.39,-0.97,2
52.36,-24.44,17.14,29.72,-27.04,34.0,0.92,-0.09,-0.49,0
42.47,5.05,-47.44,-0.79,0.06,0.43,-0.04,-0.03,1.0,3
34.42,-38.17,2.39,19.47,-26.61,126.4,0.18,-0.54,-0.36,1
46.94,-34.27,8.44,3.91,44.31,-77.64,-0.59,0.87,0.36,1
42.4,4.87,-46.45,-0.67,0.0,0.49,-0.04,-0.03,1.0,3
48.77,-28.33,14.87,9.58,-11.23,24.72,0.63,-0.04,-0.33,0
51.94,-24.07,16.15,-74.1,50.35,-28.69,0.91,0.09,-0.4,0
42.22,5.2,-47.17,-0.73,-0.12,0.61,-0.04,-0.03,1.0,3
31.16,-37.68,1.05,-120.18,-59.2,186.89,0.17,-1.5,-0.24,1
55.51,-17.44,21.11,-23.19,-78.12,-10.31,0.37,0.48,-0.94,2
45.67,-34.18,11.29,-10.01,-44.43,114.62,2.73,1.76,-0.27,1
30.51,-37.68,-2.75,4.94,-13.85,52.92,-0.39,0.73,0.21,2
53.99,-24.44,14.73,-50.17,-17.27,49.26,0.07,0.65,0.18,1
51.05,-12.68,21.84,3.66,17.46,16.54,1.11,0.23,-0.31,0
48.47,-6.03,24.77,13.06,0.67,14.95,0.88,0.42,-0.28,0
42.3,4.61,-46.84,-0.61,0.0,0.43,-0.04,-0.03,1.0,3
49.22,-17.41,21.4,69.95,-2.38,9.34,1.03,0.08,-0.37,0
7.13,-20.75,22.61,14.95,45.41,-6.53,-0.86,0.38,-0.17,2
35.82,-37.0,2.42,-77.58,47.0,-168.64,3.4,4.0,-0.12,1
50.09,-26.95,14.53,0.12,-2.62,4.03,0.81,-0.08,-0.45,0
50.99,-29.26,12.35,28.69,18.01,-52.86,-0.46,0.74,0.35,1
27.38,-37.39,-3.71,-18.37,56.21,-94.06,1.33,-0.9,-0.6,1
63.22,-18.47,0.07,-11.9,-11.47,40.22,0.7,0.84,0.12,2
49.24,-31.93,9.83,48.34,-42.85,161.38,3.6,1.1,-0.05,1
49.24,-17.08,22.97,39.73,-8.67,60.18,0.96,0.17,-0.5,0
59.39,-11.96,17.02,7.08,-64.15,-27.34,0.55,0.35,-0.96,2
42.2,4.68,-47.08,-0.73,-0.06,0.61,-0.04,-0.03,1.0,3
43.01,-35.56,9.73,-2.69,-30.46,182.62,2.63,1.84,0.04,1
29.96,-14.69,33.54,5.55,-53.53,-1.16,-0.44,0.33,-0.96,2
28.16,-38.29,1.61,-21.61,5.55,149.17,0.25,-0.73,-0.37,1
38.81,-37.7,7.14,109.92,4.46,183.72,0.94,0.44,-0.68,1
27.38,-30.24,24.5,-13.37,-95.58,-73.0,-0.38,0.64,-0.47,2
42.14,4.99,-47.01,-0.67,0.18,0.43,-0.04,-0.03,1.0,3
48.96,-29.71,13.13,-1.34,-1.22,-36.74,0.82,-0.22,-0.47,0
42.79,4.99,-47.02,-0.79,0.0,0.43,-0.04,-0.03,1.0,3
60.9,-14.7,15.41,-2.99,49.93,0.12,0.45,0.4,-0.79,2
31.76,-37.92,2.33,-177.55,-34.55,139.53,0.11,-1.36,-0.38,1
41.8,5.1,-45.21,-0.61,0.06,0.49,-0.04,-0.03,1.0,3
52.21,-15.09,25.94,-30.33,-65.8,-5.19,0.29,0.42,-0.95,2
51.78,-31.24,9.46,-78.8,-6.71,7.32,-0.53,0.66,0.26,1
21.42,-14.07,32.73,26.25,96.62,-2.56,-0.45,0.22,-0.59,2
42.13,-36.39,-2.66,-8.18,-7.87,-86.67,0.0,0.88,0.23,2
39.71,-36.89,0.95,11.9,9.46,75.07,-0.08,0.84,0.1,2
51.07,-20.97,19.52,0.85,42.79,-64.58,1.17,-0.14,-0.41,0
44.65,-31.45,14.36,117.0,-24.48,228.58,1.26,0.29,-0.62,1
45.89,-35.25,-3.71,-19.17,5.49,-83.8,0.1,0.98,0.19,2
52.58,-30.04,10.42,-36.99,-2.32,-3.6,0.81,-0.46,-0.66,0
40.98,-37.04,7.82,47.61,-50.29,186.22,1.41,0.42,-0.71,1
35.83,-37.9,-2.14,-10.5,0.55,73.73,-0.29,0.84,0.22,2
42.04,4.8,-47.67,-0.79,0.06,0.49,-0.04,-0.03,1.0,3
4.71,-23.23,18.49,20.26,-18.62,-6.53,-0.79,0.38,0.08,2
54.47,-29.49,10.41,-10.62,8.24,-31.25,0.99,-0.27,-0.52,0
48.83,-14.01,23.54,-11.66,-2.5,-5.86,0.8,0.24,-0.14,0
50.2,-31.45,11.78,42.18,-14.28,42.97,0.74,1.75,0.46,1
42.85,5.04,-46.34,-0.73,0.06,0.43,-0.04,-0.03,1.0,3
52.38,-32.39,1.78,15.38,8.91,106.45,0.44,0.98,0.04,2
54.39,-30.03,9.35,37.23,24.35,116.03,0.26,1.2,-0.16,2
50.54,-10.23,23.33,-11.84,8.24,-39.61,0.92,0.33,-0.17,0
49.73,-18.08,21.22,-19.17,2.75,-38.82,1.2,-0.08,-0.35,0
42.37,5.05,-46.18,-0.67,-0.06,0.55,-0.04,-0.03,1.0,3
50.7,-22.81,18.1,44.43,-48.34,73.24,0.97,0.02,-0.29,0
19.82,-17.36,31.42,-1.95,-116.46,-21.73,-0.52,0.3,-0.61,2
51.28,-15.52,21.29,-74.22,37.23,-62.74,1.16,-0.15,-0.39,0
50.52,-21.55,18.41,82.28,-30.52,55.18,1.02,-0.04,-0.39,0
53.1,-27.31,13.94,67.02,7.69,-24.29,-1.01,0.53,-0.1,1
38.18,-37.62,5.29,134.7,-4.33,213.87,0.31,0.36,-0.62,1
47.27,-35.12,6.12,-17.58,5.37,-14.22,0.76,-0.3,-0.47,0
17.96,-16.22,31.24,-10.25,-95.64,-16.91,-0.63,0.31,-0.65,2
50.06,-21.07,19.48,6.29,-4.03,-15.08,0.91,-0.07,-0.39,0
42.48,5.21,-47.56,-0.79,-0.06,0.49,-0.04,-0.04,1.0,3
48.75,-5.88,23.99,22.09,-5.25,39.98,0.97,0.14,-0.43,0
40.36,-36.93,-2.26,-5.74,-4.21,-128.11,-0.05,0.9,0.13,2
35.63,-34.68,-0.27,-86.12,-6.47,-87.16,2.68,3.67,0.29,1
42.15,5.37,-47.66,-0.73,0.0,0.37,-0.04,-0.03,1.0,3
31.58,-37.07,3.33,-35.89,49.93,-135.99,4.0,2.26,-1.09,1
23.62,-37.17,-6.52,-2.01,-5.49,-58.04,-0.51,0.44,0.37,2
49.6,-15.49,21.56,17.94,-6.41,52.37,0.87,0.14,-0.32,0
41.82,5.66,-46.67,-0.61,-0.12,0.49,-0.04,-0.03,1.0,3
63.61,-10.61,2.34,-22.52,-9.77,72.81,0.86,0.57,0.07,2
49.82,-7.51,23.5,9.7,-7.57,-0.18,1.28,0.19,-0.45,0
50.7,-29.81,11.33,-1.71,4.94,-33.45,0.92,-0.05,-0.46,0
41.98,4.72,-47.0,-0.73,0.0,0.31,-0.04,-0.03,1.0,3
27.47,-38.22,-6.47,-7.93,-9.34,-35.95,-0.51,0.7,0.29,2
59.61,-23.78,-0.16,-23.68,9.95,-76.72,0.58,0.86,0.22,2
59.06,-25.85,1.1,-5.07,-1.65,81.54,0.56,0.94,0.09,2
42.21,4.85,-47.06,-0.61,0.12,0.43,-0.04,-0.03,1.0,3
27.14,-38.0,-6.27,-2.62,-5.68,-45.65,-0.53,0.66,0.31,2
52.7,-10.9,23.12,14.16,-4.46,-22.09,0.76,0.0,-0.3,0
27.23,-19.69,31.92,7.93,61.46,16.48,-0.51,0.41,-0.74,2
50.95,-12.24,23.29,-30.33,7.14,10.31,0.69,0.29,-0.23,0
29.74,-37.27,3.32,51.51,-110.05,229.31,0.06,-0.64,-0.14,1
51.57,-15.36,20.53,30.82,18.68,15.01,1.18,0.3,-0.37,0
62.59,-20.57,1.17,-11.47,-8.97,58.9,0.59,1.08,0.13,2
42.05,4.59,-46.5,-0.67,-0.06,0.55,-0.04,-0.03,1.0,3
39.4,-36.62,1.04,-68.73,26.73,-107.06,3.88,4.0,0.43,1
42.61,-35.66,10.73,95.52,-59.88,134.46,1.2,0.36,-0.67,1
42.86,4.86,-47.78,-0.73,-0.06,0.55,-0.04,-0.03,1.0,3
51.17,-26.97,15.66,-99.67,9.95,-73.24,1.0,0.01,-0.47,0
48.51,-31.14,11.61,5.07,7.02,9.28,0.5,-0.07,-0.27,0
16.2,-20.37,30.7,11.78,38.94,4.33,-0.67,0.29,-0.45,2
54.59,-24.8,13.44,11.47,-58.41,77.76,1.41,1.84,0.03,1
50.96,-24.61,16.09,0.06,-1.28,23.68,0.71,-0.02,-0.34,0
37.93,-37.12,4.81,2.14,21.36,86.85,-0.17,0.87,0.07,2
42.63,5.05,-47.25,-0.85,0.0,0.49,-0.04,-0.03,1.0,3
49.45,-21.19,20.03,76.9,-5.68,15.87,1.1,0.03,-0.43,0
52.04,-29.2,10.4,34.12,-37.84,42.42,1.43,1.25,0.24,1
51.76,-14.7,25.88,2.38,-73.85,-43.4,0.25,0.43,-1.15,2
42.55,5.24,-46.79,-0.49,0.0,0.55,-0.04,-0.03,1.0,3
50.98,-25.12,16.87,72.69,-32.47,23.56,0.97,-0.02,-0.37,0
11.15,-19.65,27.64,-3.17,1.28,2.99,-0.89,0.36,-0.44,2
50.05,-8.56,23.75,28.5,-4.21,22.09,1.02,0.23,-0.55,0
47.81,-16.61,27.89,14.4,101.87,30.21,0.04,0.41,-1.03,2
60.06,-16.78,14.79,2.93,15.93,2.01,0.42,0.39,-0.87,2
51.64,-23.06,17.36,-65.61,21.12,-39.12,1.11,0.04,-0.46,0
50.32,-32.56,9.24,31.62,-1.53,50.6,1.46,2.2,0.11,1
42.69,4.71,-47.42,-0.55,0.0,0.31,-0.04,-0.03,1.0,3
48.8,-23.78,25.07,16.36,74.77,25.27,0.04,0.58,-1.01,2
49.62,-17.13,21.44,94.91,-19.17,38.39,1.38,-0.03,-0.58,0
50.96,-26.92,15.19,12.63,9.09,-26.98,0.68,-0.17,-0.5,0
41.88,5.27,-46.44,-0.85,0.0,0.37,-0.04,-0.03,1.0,3
50.44,-19.6,21.33,100.04,-46.75,70.86,1.24,-0.24,-0.68,0
50.57,-13.87,21.72,93.44,-29.91,54.93,1.2,-0.05,-0.54,0
52.0,-15.03,26.09,-1.59,88.44,16.11,0.26,0.29,-0.93,2
14.95,-21.75,27.87,6.53,-40.83,-19.9,-0.82,0.38,-0.54,2
51.44,-20.12,19.36,44.43,-24.41,46.57,1.04,-0.06,-0.51,0
28.88,-37.7,-0.16,132.93,54.44,48.58,0.49,-0.5,-0.34,1
49.23,-5.36,24.43,-42.54,18.92,-33.39,0.87,0.26,-0.31,0
42.26,5.36,-48.22,-0.85,0.0,0.31,-0.04,-0.03,1.0,3
48.63,-9.95,22.92,-3.6,20.26,-24.96,0.99,0.28,-0.37,0
50.92,-14.37,20.94,72.57,-30.21,64.7,1.22,-0.06,-0.53,0
51.2,-30.29,11.29,-9.46,-10.31,-13.12,0.83,-0.09,-0.56,0
30.63,-36.41,-0.67,-80.32,96.25,-180.18,3.07,0.63,-0.25,1
45.56,-34.58,7.6,7.39,-10.07,153.5,2.42,0.89,-0.52,1
51.79,-22.02,19.01,37.05,-50.72,82.82,0.86,-0.36,-0.37,0
46.56,-35.42,8.09,-214.78,-0.12,-373.96,0.63,1.19,0.44,1
50.31,-15.09,22.6,-45.29,34.3,-81.73,1.15,0.24,-0.27,0
51.01,-19.27,18.05,-34.12,6.9,-17.64,0.8,0.17,-0.22,0
3.44,-13.53,22.58,9.16,33.39,-2.69,-0.75,0.23,0.07,2
25.88,-31.01,23.07,29.42,85.82,75.13,-0.33,0.64,-0.41,2
32.01,-37.82,-7.98,-1.83,-4.03,-56.34,-0.41,0.76,0.33,2
42.55,5.07,-46.36,-0.61,0.06,0.49,-0.04,-0.03,1.0,3
53.08,-30.29,9.11,-20.75,-7.57,41.32,0.72,1.68,0.17,1
47.22,-33.92,2.54,-12.88,0.55,9.83,0.51,-0.3,-0.38,0
19.57,-37.35,-4.55,-14.1,-3.36,-38.39,-0.51,0.42,0.46,2
39.47,-35.86,0.18,-159.48,8.3,-128.72,1.68,1.67,0.43,1
50.28,-18.13,20.52,3.48,8.79,-46.33,1.13,0.15,-0.24,0
30.57,-37.3,0.12,83.74,4.21,22.03,0.56,-1.15,-0.55,1
40.01,-34.61,-4.8,34.24,20.94,2.2,2.35,-0.37,-0.61,1
46.96,-34.96,9.91,-31.86,-34.85,-30.46,-0.8,0.34,0.18,1
42.48,4.99,-47.35,-0.79,0.0,0.31,-0.04,-0.03,1.0,3
50.11,-23.27,16.7,-63.05,20.32,-31.19,0.94,0.25,-0.23,0
33.85,-36.8,-1.48,-18.19,1.65,-95.89,4.0,2.83,-0.99,1
52.78,-16.09,17.93,-36.62,27.47,-38.76,1.19,-0.01,-0.25,0
42.24,4.96,-48.07,-0.79,0.0,0.49,-0.04,-0.03,1.0,3
53.25,-23.52,17.11,5.19,-24.84,8.61,0.31,0.65,0.01,1
50.0,-24.07,18.3,-40.59,15.26,-27.1,0.9,0.18,-0.34,0
40.65,-36.19,-4.75,35.28,10.13,97.35,-0.11,0.74,0.21,2
51.84,-30.09,10.68,18.25,92.04,-49.19,-0.64,0.75,0.3,1
42.71,4.81,-47.83,-0.55,0.0,0.37,-0.04,-0.03,1.0,3
30.21,-35.66,-3.09,181.64,-46.08,216.37,0.04,-1.47,-0.42,1
52.01,-22.18,15.99,-29.6,7.81,-39.18,1.04,-0.03,-0.33,0
37.11,-38.17,-0.92,-180.91,51.15,-215.45,1.15,1.47,0.92,1
53.25,-18.91,17.14,-23.62,13.61,-36.93,1.0,-0.1,-0.13,0
42.16,4.87,-48.84,-0.92,-0.06,0.49,-0.04,-0.03,1.0,3
50.85,-22.08,17.9,91.92,-22.16,49.68,1.12,-0.06,-0.35,0
61.02,-23.18,1.95,4.27,-13.24,75.07,0.69,1.04,0.12,2
32.31,-36.56,-1.33,-39.92,39.79,-127.32,3.8,1.1,-0.62,1
51.95,-28.0,12.7,15.2,-18.86,38.45,0.81,-0.11,-0.44,0
48.24,-33.03,8.95,70.19,-66.04,242.37,2.01,-0.02,-0.42,1
60.39,-24.08,-0.21,-3.17,-3.97,99.61,0.62,0.87,0.14,2
50.59,-31.24,11.27,27.22,2.75,20.94,-0.08,0.78,0.12,1
53.55,-14.51,24.68,6.77,-45.41,-15.44,0.28,0.31,-0.88,2
30.87,-35.85,2.22,-26.25,6.84,-187.74,4.0,2.4,-1.16,1
41.98,5.15,-46.97,-0.67,0.0,0.37,-0.04,-0.03,1.0,3
42.41,5.04,-46.57,-0.73,0.0,0.37,-0.04,-0.03,1.0,3
52.48,-16.32,25.55,-23.86,85.69,39.25,0.15,0.38,-1.03,2
41.92,-37.19,4.81,18.92,-71.29,173.03,2.24,1.58,0.41,1
38.09,-38.31,5.81,220.52,-37.9,137.94,0.03,-0.39,-0.36,1
63.9,-12.6,1.0,-4.46,-9.09,23.19,0.78,0.68,0.1,2
48.58,-18.73,21.7,47.61,-26.55,30.4,1.03,-0.06,-0.57,0
42.6,5.08,-46.84,-0.85,0.12,0.43,-0.04,-0.03,1.0,3
47.77,-3.33,22.9,21.73,-5.92,40.95,0.88,-0.01,-0.43,0
52.62,-25.39,13.17,-53.83,-4.15,18.74,-0.57,0.57,0.22,1
41.91,-12.23,32.47,-1.53,116.76,16.3,-0.09,0.2,-1.16,2
42.52,-38.78,2.64,-169.8,-40.28,-276.06,1.03,1.85,0.51,1
48.77,-10.52,22.9,-21.0,4.64,-42.18,0.94,0.42,-0.21,0
42.16,4.7,-46.48,-0.67,0.12,0.31,-0.04,-0.03,1.0,3
49.91,-30.59,11.87,-16.66,0.31,75.32,1.38,2.9,-0.29,1
34.22,-37.92,-0.66,-158.57,18.92,-333.68,0.26,1.19,0.63,1
47.72,-10.08,25.42,11.9,-0.92,-5.55,1.16,0.31,-0.27,0
27.98,-36.54,2.7,79.83,50.78,45.65,0.86,-0.83,-0.34,1
42.27,4.49,-47.49,-0.73,0.0,0.43,-0.04,-0.03,1.0,3
47.57,-7.85,22.88,-5.92,10.68,12.39,0.87,0.2,-0.4,0
62.44,-14.34,10.19,0.55,45.1,10.07,0.55,0.39,-0.85,2
48.6,-6.75,23.14,11.11,15.14,-10.99,0.92,0.25,-0.37,0
10.95,-21.42,25.34,2.2,22.28,-4.15,-0.77,0.43,-0.18,2
50.88,-26.25,15.22,17.82,-20.45,23.5,0.62,-0.03,-0.46,0
48.6,-10.55,23.32,-4.64,4.46,-21.91,0.84,0.13,-0.25,0
52.93,-24.65,14.48,-39.0,37.35,-56.15,1.24,-0.05,-0.37,0
51.34,-12.84,26.97,2.08,97.6,23.25,0.28,0.28,-1.12,2
34.05,-36.95,1.42,-43.03,52.92,-163.33,4.0,3.96,-0.99,1
43.3,-36.07,6.2,-5.86,-19.29,216.31,2.3,0.77,-0.06,1
37.08,-37.46,1.17,27.22,-52.98,126.59,0.14,-0.98,-0.28,1
47.03,-33.91,8.08,46.75,37.96,-49.93,-0.84,0.31,0.17,1
56.04,-29.13,0.44,5.8,3.42,-83.8,0.41,0.94,0.09,2
53.48,-29.11,12.5,-33.69,3.54,-11.11,0.86,-0.31,-0.58,0
27.67,-34.44,3.65,-87.34,-28.02,232.06,0.15,-1.28,-0.42,1
35.25,-36.66,-0.57,140.93,-5.49,58.04,-0.04,-0.74,-0.75,1
60.57,-23.13,9.0,34.3,13.67,20.2,0.7,0.85,-0.13,2
48.78,-28.94,13.35,-32.47,-10.13,-1.95,0.69,0.01,-0.29,0
53.32,-31.58,-0.67,19.71,-4.27,104.13,0.4,1.05,0.08,2
51.81,-28.21,13.67,86.49,19.1,126.77,3.74,2.64,0.14,1
42.97,5.0,-46.44,-0.85,0.06,0.49,-0.04,-0.03,1.0,3
61.67,-21.87,1.48,-21.3,1.89,-49.99,0.67,1.01,0.16,2
50.45,-27.16,15.44,33.08,-27.47,40.59,0.76,-0.12,-0.34,0
49.68,-31.53,12.29,10.62,7.57,189.58,3.2,1.58,-0.38,1
52.64,-23.11,15.82,-114.5,57.43,-4.52,-0.48,0.29,-0.13,1
49.43,-8.06,23.85,-44.43,0.37,-32.53,0.88,0.32,-0.23,0
60.77,-17.24,14.54,1.22,-9.22,-2.93,0.45,0.39,-0.89,2
54.2,-26.53,12.24,40.65,-32.84,84.78,0.86,1.49,0.06,1
49.45,-19.3,20.1,-39.67,10.56,-31.74,0.89,0.04,-0.3,0
49.79,-17.54,21.08,-29.54,-0.85,-36.5,0.89,0.09,-0.2,0
42.38,5.21,-47.68,-0.79,0.0,0.37,-0.04,-0.03,1.0,3
49.87,-28.37,12.98,-53.1,5.55,-21.91,0.99,-0.05,-0.54,0
49.22,-13.71,22.39,-21.18,31.13,-77.51,1.02,0.23,-0.16,0
46.92,-2.09,24.8,3.17,-2.32,14.34,1.03,0.07,-0.43,0
50.24,-6.05,22.8,97.66,-33.69,56.76,1.15,0.73,-0.4,0
20.03,-16.97,31.68,8.91,95.03,14.47,-0.6,0.37,-0.62,2
7.1,-23.13,20.69,2.62,44.49,12.82,-0.9,0.35,-0.16,2
51.0,-28.89,12.87,-54.02,27.89,18.07,-0.84,0.32,-0.23,1
50.84,-32.28,6.68,-8.73,9.83,0.06,0.76,-0.26,-0.4,0
42.24,4.59,-47.8,-0.67,0.06,0.55,-0.04,-0.03,1.0,3
42.47,4.71,-45.58,-0.79,-0.12,0.49,-0.04,-0.03,1.0,3
9.96,-15.7,27.1,25.15,88.56,5.19,-0.4,0.24,-0.04,2
30.38,-37.79,-4.38,7.69,-4.46,-35.95,-0.38,0.52,0.36,2
42.02,4.8,-46.72,-0.73,0.12,0.31,-0.04,-0.03,1.0,3
51.77,-20.68,18.47,-48.65,37.29,-17.15,1.03,-0.03,-0.51,0
45.45,-34.4,8.95,-58.04,-90.03,196.11,2.06,0.47,-0.53,1
29.41,-37.05,3.52,184.88,3.42,38.15,0.83,-1.15,-0.33,1
47.31,-34.33,-1.26,-9.09,-1.4,-74.28,0.09,1.04,0.15,2
47.78,-8.94,25.37,-11.05,-3.3,51.21,0.86,0.43,-0.43,0
51.18,-29.58,14.18,-29.97,1.77,-52.8,1.1,-0.12,-0.5,0
10.05,-20.64,24.35,26.92,44.68,-9.22,-0.74,0.36,-0.18,2
32.57,-36.27,-2.55,43.58,37.29,-9.16,0.74,-1.03,-0.48,1
49.23,-11.02,22.46,8.3,1.28,7.51,0.88,0.27,-0.32,0
54.79,-26.22,12.08,28.69,51.82,-94.97,-0.44,0.71,0.42,1
30.94,-37.0,2.58,114.93,-71.53,229.19,0.37,-0.37,-0.09,1
42.64,5.11,-46.64,-0.79,0.06,0.49,-0.04,-0.03,1.0,3
21.06,-36.89,-8.47,7.32,-6.71,-46.02,-0.64,0.3,0.35,2
22.69,-16.41,34.07,-12.94,-129.39,-16.85,-0.5,0.3,-0.71,2
50.5,-29.96,8.72,12.33,-4.33,9.28,0.58,-0.23,-0.32,0
50.63,-25.82,16.14,-5.92,-15.75,3.36,0.78,-0.03,-0.37,0
40.89,-37.0,1.76,4.21,5.49,91.43,-0.09,0.9,0.14,2
42.81,5.31,-46.89,-0.73,-0.06,0.37,-0.04,-0.03,1.0,3
50.55,-14.03,22.88,25.7,-0.12,46.45,0.91,0.3,-0.4,0
49.06,-12.71,22.74,-54.87,8.3,-38.7,1.06,0.13,-0.39,0
62.23,-15.0,8.62,-3.91,24.05,3.48,0.58,0.37,-0.8,2
50.07,-15.92,22.3,59.02,-13.67,59.45,0.94,-0.13,-0.45,0
50.77,-12.61,22.11,-13.0,14.71,-36.56,0.89,0.05,-0.25,0
49.44,-32.76,5.7,-119.57,8.54,-262.88,-0.47,0.6,0.42,1
53.22,-20.95,15.73,-20.75,6.41,-7.32,1.01,0.12,-0.23,0
50.74,-32.3,8.11,1.53,-7.57,22.77,0.62,-0.06,-0.43,0
43.65,-36.62,2.14,-7.51,7.87,109.19,0.09,0.98,0.13,2
50.87,-12.37,22.38,-2.62,4.15,-51.7,0.94,0.37,-0.12,0
41.98,4.33,-47.51,-0.73,0.0,0.55,-0.04,-0.03,1.0,3
51.88,-31.46,8.86,-92.29,22.52,-52.8,0.99,0.0,-0.59,0
42.6,4.48,-45.98,-0.61,0.0,0.37,-0.04,-0.03,1.0,3
43.29,-36.46,4.8,9.83,20.81,117.74,0.16,0.85,0.13,2
42.3,5.13,-46.91,-0.79,-0.06,0.43,-0.04,-0.03,1.0,3
58.8,-16.93,18.86,-0.67,-38.82,-6.9,0.43,0.4,-0.83,2
34.33,-34.31,-0.4,-50.54,36.25,-142.7,2.44,2.78,0.9,1
42.42,4.75,-46.61,-0.79,0.0,0.24,-0.04,-0.03,1.0,3
35.52,-35.24,-2.62,14.34,36.01,-128.42,3.05,-0.16,-0.77,1
30.1,-38.88,-1.81,-54.63,49.8,-108.4,0.71,-0.6,-0.27,1
42.76,4.82,-47.73,-0.61,-0.06,0.49,-0.04,-0.03,1.0,3
42.26,4.79,-47.09,-0.85,0.0,0.49,-0.04,-0.03,1.0,3
40.09,-21.57,30.66,2.81,-73.85,-17.4,-0.19,0.45,-0.88,2
4.65,-13.96,24.35,-4.03,72.14,15.01,-0.79,0.29,-0.17,2
48.3,-5.13,23.74,40.59,5.0,35.4,1.03,0.3,-0.58,0
46.52,-13.88,30.54,-6.16,-26.79,-20.81,0.01,0.25,-0.98,2
42.38,4.96,-47.92,-0.92,0.0,0.49,-0.04,-0.03,1.0,3
41.16,4.28,-47.79,-0.67,0.0,0.61,-0.04,-0.03,1.0,3
54.03,-29.22,10.38,1.4,-2.26,8.54,0.87,-0.17,-0.43,0
51.03,-30.88,10.86,-24.23,15.75,-15.2,0.8,-0.35,-0.57,0
50.31,-28.67,13.16,35.22,-16.54,35.52,0.66,0.07,-0.19,0
60.03,-22.56,8.0,-13.85,-0.18,-71.17,0.69,0.75,0.08,2
42.0,-35.75,-1.45,-8.91,-0.43,-79.96,-0.03,0.99,0.19,2
49.46,-10.52,21.67,-20.57,11.35,-8.24,0.75,0.34,-0.08,0
49.44,-20.87,19.4,27.16,-6.47,17.76,0.85,0.11,-0.33,0
51.4,-29.14,12.76,30.4,-35.77,60.0,0.82,-0.16,-0.52,0
48.67,-32.15,10.17,5.92,37.66,-36.99,-0.94,0.55,0.14,1
58.67,-15.55,18.63,-22.77,-71.59,-22.28,0.47,0.44,-0.95,2
41.92,4.81,-47.0,-0.61,0.06,0.55,-0.04,-0.03,1.0,3
49.58,-25.22,18.24,7.63,-5.25,-0.79,0.8,-0.2,-0.39,0
35.93,-36.39,0.89,-87.59,-29.66,-175.23,2.66,4.0,0.11,1
27.93,-37.73,-0.34,-33.94,112.85,-149.9,3.76,1.36,-0.54,1
50.4,-26.81,14.23,-23.86,-7.87,-23.5,1.1,0.12,-0.33,0
17.75,-36.3,-4.71,-6.29,-0.67,-28.14,-0.65,0.16,0.29,2
42.85,5.25,-48.17,-0.85,-0.18,0.55,-0.04,-0.03,1.0,3
53.11,-22.19,14.43,5.43,-5.86,-35.77,0.98,0.2,-0.1,0
41.75,4.48,-46.7,-0.73,0.0,0.49,-0.04,-0.03,1.0,3
62.71,-16.93,3.31,2.75,-8.18,47.36,0.7,0.81,0.08,2
28.28,-26.94,28.09,-25.82,-63.6,-35.64,-0.43,0.52,-0.64,2
28.7,-37.9,-0.12,113.77,26.49,77.21,0.03,-1.03,-0.88,1
26.46,-36.89,0.23,111.27,81.42,-68.97,1.13,-0.84,-0.5,1
54.32,-26.48,12.22,7.63,-24.78,39.98,-0.21,0.72,0.09,1
44.2,-36.13,1.56,-226.14,39.79,-226.07,1.7,1.29,0.7,1
50.95,-9.61,21.04,3.3,2.44,-0.24,1.18,0.43,-0.38,0
51.59,-19.87,19.51,93.26,-59.57,58.53,0.89,-0.13,-0.47,0
50.44,-16.92,20.98,-11.96,-9.16,-41.99,1.2,0.01,-0.15,0
52.37,-18.9,19.17,-22.64,39.67,-93.63,1.29,-0.03,-0.37,0
51.59,-15.48,20.63,-59.14,-10.38,-9.22,1.04,0.26,-0.21,0
31.01,-38.48,-3.41,20.69,9.83,92.96,-0.29,0.68,0.22,2
51.15,-16.85,20.95,41.5,-53.16,67.44,1.07,-0.1,-0.43,0
34.83,-37.22,-0.7,-13.79,20.08,-60.79,0.61,-0.91,-0.29,1
47.03,-36.16,3.75,284.85,21.12,-14.1,0.58,-0.23,-0.36,1
52.01,-19.31,19.18,-49.44,16.97,-73.3,1.24,0.0,-0.28,0
50.29,-16.49,22.08,96.07,-37.9,56.15,1.17,-0.09,-0.57,0
51.82,-20.78,20.63,11.41,-18.31,2.38,0.65,-0.23,-0.37,0
49.43,-16.13,22.81,-28.44,11.78,-25.39,0.93,0.13,-0.14,0
19.64,-28.53,24.43,-22.03,-44.62,-17.64,-0.67,0.53,-0.29,2
48.51,-11.65,23.68,-26.25,23.5,-57.37,0.96,0.03,-0.24,0
50.27,-30.8,11.36,-28.99,-30.52,139.4,4.0,4.0,0.43,1
54.77,-17.98,22.91,-3.42,-54.87,-7.02,0.45,0.39,-0.86,2
50.02,-26.33,17.65,-87.1,25.94,-73.55,1.24,-0.04,-0.58,0
4.33,-17.42,22.81,-14.65,-65.98,-7.51,-0.72,0.2,-0.04,2
49.63,-20.03,18.73,-2.44,2.99,-20.02,0.88,0.04,-0.33,0
49.28,-25.89,16.28,29.11,-19.84,26.86,0.68,-0.08,-0.36,0
41.88,4.47,-47.3,-0.79,0.0,0.55,-0.04,-0.03,1.0,3
49.57,-16.75,20.78,-50.29,34.42,-32.65,0.99,0.0,-0.24,0
48.46,-6.04,23.45,-32.04,18.19,-50.78,0.95,0.18,-0.26,0
33.63,-19.52,32.34,5.43,57.43,13.49,-0.41,0.41,-0.84,2
8.89,-22.23,22.81,-15.81,-28.87,2.38,-0.8,0.4,-0.11,2
52.12,-14.98,20.12,67.08,-22.83,70.43,1.17,-0.01,-0.44,0
49.62,-14.89,21.89,54.44,-36.38,111.27,1.24,0.04,-0.63,0
31.02,-37.21,-4.39,-12.76,-18.13,-75.68,-0.38,0.56,0.25,2
42.86,5.65,-47.45,-0.85,0.0,0.49,-0.04,-0.03,1.0,3
42.53,5.08,-46.58,-0.67,0.0,0.37,-0.04,-0.03,1.0,3
49.27,-6.13,22.94,48.71,21.36,6.41,1.08,0.31,-0.47,0
41.97,5.03,-45.63,-0.73,0.06,0.49,-0.04,-0.03,1.0,3
61.34,-21.67,0.4,4.21,12.21,-76.54,0.7,0.79,0.14,2
28.3,-36.39,4.91,71.47,-1.16,158.69,0.2,-1.02,-0.64,1
48.13,-13.65,23.07,23.07,-15.56,64.82,0.87,0.17,-0.48,0
50.17,-30.42,10.94,136.29,-55.48,54.14,0.88,-0.15,-0.5,0
18.46,-36.35,-7.93,4.46,4.33,-14.89,-0.68,0.26,0.35,2
51.14,-26.48,17.25,19.96,-33.39,57.56,0.63,-0.22,-0.47,0
31.15,-15.27,35.16,-4.82,-98.27,-14.77,-0.33,0.34,-0.91,2
41.7,-37.98,-0.9,-204.1,34.24,-290.83,0.25,1.09,0.31,1
49.9,-11.19,24.4,40.28,10.56,-9.52,1.2,-0.04,-0.52,0
49.66,-16.7,21.57,-29.05,4.76,-11.96,1.02,0.2,-0.23,0
17.08,-20.26,30.26,-11.9,-101.01,-15.38,-0.59,0.32,-0.42,2
50.56,-12.72,21.44,-11.05,8.24,-27.95,0.84,0.2,-0.21,0
53.13,-29.97,7.98,-2.62,-14.1,31.31,0.6,-0.24,-0.45,0
49.52,-19.3,20.98,82.64,-14.04,27.59,1.07,0.01,-0.5,0
38.4,-37.62,0.1,-148.56,93.02,-312.74,0.49,1.26,0.81,1
42.49,4.61,-47.25,-0.67,-0.06,0.49,-0.04,-0.03,1.0,3
13.62,-22.29,26.25,-3.11,75.5,31.37,-0.72,0.34,-0.37,2
32.37,-35.64,3.85,111.08,82.03,32.84,0.58,-0.38,-0.36,1
50.37,-30.6,13.87,-25.09,18.98,16.42,-0.28,0.38,0.38,1
49.49,-19.87,19.71,-29.6,26.92,-36.32,1.02,-0.06,-0.36,0
31.23,-37.9,-1.06,-51.88,47.79,-106.69,3.57,-0.63,-0.64,1
42.87,4.55,-46.69,-0.67,-0.06,0.49,-0.04,-0.03,1.0,3
24.77,-17.83,33.7,-9.46,-87.16,-25.57,-0.48,0.37,-0.76,2
26.33,-37.84,-9.02,-0.31,5.19,66.35,-0.52,0.64,0.31,2
49.98,-9.28,21.92,5.31,-5.74,-22.03,0.9,0.56,-0.13,0
15.16,-19.96,29.41,11.6,64.09,10.99,-0.82,0.36,-0.49,2
36.57,-37.9,-3.92,27.22,16.72,82.28,-0.18,0.78,0.16,2
54.06,-27.06,11.66,-9.83,-32.23,-83.44,-0.82,0.72,0.16,1
51.18,-11.19,20.79,-3.11,19.29,-14.53,0.88,0.24,-0.13,0
19.09,-37.74,-4.6,5.0,9.46,7.51,-0.59,0.32,0.44,2
47.07,-7.37,23.56,15.32,0.73,22.22,1.04,0.16,-0.39,0
27.77,-16.81,34.11,10.01,111.57,18.37,-0.41,0.34,-0.8,2
42.41,5.48,-46.3,-0.73,0.0,0.43,-0.04,-0.03,1.0,3
51.03,-22.11,19.97,-108.7,44.98,-59.33,1.0,0.28,-0.42,0
49.98,-26.57,16.05,39.73,-24.05,44.13,0.78,-0.09,-0.39,0
15.52,-18.73,29.75,-27.59,-75.81,-18.55,-0.68,0.28,-0.41,2
50.78,-15.27,21.04,-35.16,0.61,-4.7,1.11,0.06,-0.33,0
31.12,-38.23,-1.4,-78.25,70.62,-88.38,2.23,0.37,-0.17,1
49.3,-9.27,21.79,-15.01,7.75,1.53,0.78,0.39,-0.24,0
43.92,-35.08,8.65,33.81,12.27,203.37,2.3,1.09,-0.55,1
50.01,-17.85,22.5,-43.88,40.65,-85.88,1.13,0.23,-0.3,0
50.27,-30.22,10.96,33.08,33.33,78.06,1.42,2.33,0.23,1
50.62,-13.51,20.02,66.65,-11.96,39.98,1.3,0.16,-0.42,0
41.63,4.94,-47.3,-0.79,0.06,0.43,-0.04,-0.03,1.0,3
47.24,-36.49,4.63,150.63,-21.18,91.67,1.09,0.35,-0.54,1
53.66,-24.54,14.98,24.11,2.01,-30.46,-0.52,1.09,0.21,1
62.46,-20.39,2.45,3.6,-11.29,30.88,0.59,0.99,0.13,2
51.59,-23.71,22.3,-45.35,108.76,83.37,0.27,0.81,-0.93,2
49.67,-27.98,14.31,-12.82,-7.45,34.61,0.7,-0.09,-0.34,0
46.3,-35.49,9.75,67.75,-7.63,69.64,2.7,1.49,0.14,1
51.06,-11.65,22.84,-11.84,12.27,-42.05,0.76,0.15,-0.16,0
28.42,-35.1,3.42,-43.09,-2.75,154.36,0.39,-0.82,-0.68,1
59.03,-11.29,17.79,-3.23,-1.95,3.91,0.39,0.5,-1.2,2
42.77,5.04,-46.59,-0.79,0.12,0.43,-0.04,-0.03,1.0,3
42.4,4.99,-46.34,-0.73,0.0,0.43,-0.04,-0.03,1.0,3
28.54,-37.79,-0.74,9.7,44.07,-59.75,3.39,1.52,-0.19,1
49.37,-10.45,24.38,-0.85,0.67,22.34,0.88,0.39,-0.47,0
32.85,-36.38,-2.29,-24.72,58.11,-101.2,1.18,-0.68,-0.03,1
6.07,-21.5,21.46,2.81,-46.75,-4.88,-0.88,0.35,-0.14,2
22.86,-28.82,25.39,10.74,36.62,22.58,-0.42,0.41,-0.15,2
24.29,-37.41,0.77,156.25,62.99,76.66,0.94,-0.7,-0.56,1
9.19,-29.04,16.39,29.97,33.94,10.8,-0.73,0.56,0.03,2
25.37,-38.99,4.09,89.05,1.65,199.71,0.53,-1.22,-0.26,1
48.72,-14.37,22.88,57.92,-15.63,24.29,1.0,0.12,-0.62,0
50.73,-22.63,17.59,90.94,-79.59,106.75,1.29,-0.13,-0.5,0
33.19,-34.56,1.14,-64.03,-10.07,-141.17,1.9,3.95,0.34,1
53.27,-31.95,-0.85,16.72,-0.06,114.93,0.43,1.02,0.09,2
58.75,-26.51,0.44,-10.99,-9.4,95.89,0.53,0.97,0.13,2
50.16,-33.35,-0.62,11.9,3.6,92.96,0.13,0.94,0.19,2
32.81,-36.69,2.75,100.95,26.25,99.67,0.25,-0.7,-0.47,1
42.54,-36.44,8.03,114.14,-42.42,122.99,0.74,0.14,-0.55,1
5.16,-20.96,19.69,-18.74,-59.63,-6.23,-0.9,0.31,-0.16,2
51.44,-27.4,14.9,-88.87,23.74,-47.55,0.84,-0.1,-0.53,0
42.57,4.72,-47.31,-0.61,0.06,0.49,-0.04,-0.03,1.0,3
46.86,-22.23,27.11,-18.98,-73.67,-21.91,0.1,0.6,-0.88,2
45.73,-35.9,-2.86,14.71,16.3,90.76,0.03,0.92,0.13,2
42.4,4.21,-46.8,-0.67,-15.63,0.49,-0.04,-0.03,1.0,3
42.44,4.81,-46.8,-0.67,0.0,0.43,-0.04,-0.03,1.0,3
61.94,-14.06,11.96,-0.18,29.85,12.21,0.57,0.39,-0.85,2
29.69,-34.03,-1.14,52.98,-47.61,222.23,0.05,-1.1,-0.55,1
42.09,5.38,-48.66,-0.79,-0.06,0.37,-0.04,-0.03,1.0,3
50.12,-32.69,-2.36,-7.51,-2.99,-63.29,0.16,0.97,0.17,2
49.74,-33.3,-1.16,15.87,3.54,93.32,0.19,0.95,0.12,2
52.42,-24.89,16.32,-17.33,-12.7,-11.54,0.9,-0.28,-0.52,0
29.1,-37.62,-5.15,-9.77,-7.14,-71.53,-0.48,0.77,0.25,2
49.22,-12.48,22.39,11.96,-11.78,20.14,1.2,0.31,-0.4,0
49.21,-19.12,20.14,55.73,-20.57,35.28,1.03,0.02,-0.5,0
49.15,-12.7,21.79,-30.64,25.09,-51.33,0.96,0.17,-0.19,0
